t_s,ax,ay,az,gx,gy,gz,qw,qx,qy,qz,temp_c
0.000,-4.771312403846154,0.2478603846153846,8.54399891025641,0.002929477199087162,-0.0005326322180158477,0.0023968449810713144,0.9653687409451015,-0.003674713564971315,0.25243310321943613,0.06578159989913983,26.125
0.020,-4.756943685897435,0.24247211538461536,8.546693044871795,0.002929477199087162,-0.0007989483270237714,0.0007989483270237714,0.9655651061892179,-0.004802762673326177,0.25173658288491235,0.06549543509234688,26.125
0.040,-4.753351506410256,0.21553076923076925,8.545795,0.0031957933080950856,0.00026631610900792384,0.0018642127630554668,0.9654750983714315,-0.005260497248216306,0.25210430434215314,0.06537263437811913,26.125
0.061,-4.753351506410256,0.21553076923076925,8.545795,0.0031957933080950856,0.00026631610900792384,0.0018642127630554668,0.9654750983714315,-0.005260497248216306,0.25210430434215314,0.06537263437811913,26.125
0.081,-4.767720224358974,0.22271512820512818,8.523343878205129,0.003994741635118857,0.0010652644360316954,0.0031957933080950856,0.9655905213606697,-0.004863356984640928,0.2516391767309848,0.06549059131984,26.125
0.101,-4.781190897435897,0.23798189102564102,8.546693044871795,0.004261057744126781,0.0018642127630554668,0.0031957933080950856,0.9654028638479566,-0.00567819641059545,0.2523946869648887,0.06528392261179132,26.125
0.121,-4.790171346153846,0.24157407051282048,8.535916506410256,0.003994741635118857,0.0018642127630554668,0.0018642127630554668,0.9652611147221851,-0.005336061607928579,0.25292302820542856,0.06536397061988325,26.125
0.141,-4.849442307692308,0.2352877564102564,8.596983557692306,0.003994741635118857,0.0010652644360316954,0.0015978966540475428,0.9651120066178747,-0.0051023764161974355,0.2534836579844966,0.06541265605160494,26.125
0.161,-4.849442307692308,0.2352877564102564,8.596983557692306,0.003994741635118857,0.0010652644360316954,0.0015978966540475428,0.9651120066178747,-0.0051023764161974355,0.2534836579844966,0.06541265605160494,26.125
0.181,-4.898834775641025,0.21373467948717947,8.790063205128204,0.0023968449810713144,-0.0023968449810713144,0.0018642127630554668,0.9652291907382752,-0.0047816954221988955,0.2530188451109934,0.06550731832645103,26.125
0.202,-4.72641016025641,0.17242461538461537,8.51436342948718,0.0021305288720633907,-0.0021305288720633907,0.0023968449810713144,0.9653394624959295,-0.005229168666957601,0.25261523046431705,0.06540583521813963,26.125
0.222,-4.703959038461538,0.3053352564102564,8.464970961538462,0.002663161090079238,-0.0007989483270237714,0.0021305288720633907,0.965380567002749,-0.004593593902875538,0.2524254122106944,0.0655795015135627,26.125
0.242,-4.752453461538461,0.24516625,8.562857852564102,0.00346210941710301,0.0,0.0021305288720633907,0.9655209307087189,-0.00438435865443963,0.2518752099407161,0.06564288521903008,26.125
0.262,-4.809928333333333,0.23259362179487178,8.574532435897435,0.004261057744126781,0.002663161090079238,0.002929477199087162,0.9653778594833178,-0.004581947875217686,0.25243329646788726,0.06558982396250432,26.125
0.282,-4.756045641025641,0.19846791666666666,8.560163717948717,0.003994741635118857,0.0023968449810713144,0.002663161090079238,0.9654758143767396,-0.00501655340943087,0.2520772081344838,0.06548562578601469,26.125
0.302,-4.774904583333333,0.2765978205128205,8.535916506410256,0.002663161090079238,0.00026631610900792384,0.002663161090079238,0.9654305387721175,-0.00436283683462049,0.2522161649379977,0.06566465262911474,26.125
0.323,-4.756943685897435,0.19307964743589742,8.506281025641025,0.002663161090079238,-0.0005326322180158477,0.002663161090079238,0.965434197770113,-0.004968357501539206,0.25222928857290966,0.0655172586859323,26.125
0.343,-4.776700673076923,0.2640251923076923,8.565551987179486,0.002929477199087162,-0.0015978966540475428,0.0023968449810713144,0.9654590621109574,-0.004308154510132356,0.2520994078475214,0.06569724313452155,26.125
0.363,-4.795559615384615,0.20655032051282052,8.548489134615384,0.002929477199087162,-0.001331580545039619,0.002663161090079238,0.9654000125780698,-0.004839534362794092,0.25235032400097124,0.06556453765579981,26.125
0.383,-4.774904583333333,0.23349166666666665,8.525139967948718,0.00346210941710301,0.0010652644360316954,0.002663161090079238,0.9652460676847624,-0.004728108833236784,0.252933265068445,0.06559296629807107,26.125
0.403,-4.75963782051282,0.2532486538461538,8.528732147435898,0.003994741635118857,0.0015978966540475428,0.0023968449810713144,0.9653426728539454,-0.004243362227628588,0.2525382214875103,0.0657264370868447,26.125
0.423,-4.740778878205128,0.22720535256410257,8.535018461538462,0.004261057744126781,0.0010652644360316954,0.002929477199087162,0.96547890840398,-0.004449972883465811,0.25202421972224176,0.06568460886532547,26.125
0.443,-4.75963782051282,0.22271512820512818,8.590697243589743,0.0037284255261109335,0.0010652644360316954,0.002663161090079238,0.965614049259393,-0.00467332083425373,0.2515138785632618,0.06563868398531175,26.125
0.464,-4.767720224358974,0.2550447435897436,8.535018461538462,0.0037284255261109335,0.0005326322180158477,0.0021305288720633907,0.9655095694963035,-0.0041399038062859194,0.25188896350373696,0.06577296156134683,26.125
0.484,-4.756045641025641,0.24606429487179488,8.517057564102563,0.003994741635118857,-0.00026631610900792384,0.0023968449810713144,0.9653591833571147,-0.004046357399987042,0.2524615099282164,0.06579103361888551,26.125
0.504,-4.793763525641025,0.22451121794871792,8.51795560897436,0.00346210941710301,-0.0007989483270237714,0.0018642127630554668,0.9652566043057343,-0.004442066413377785,0.2528752769884891,0.06568142947696115,26.125
0.524,-4.793763525641025,0.22451121794871792,8.51795560897436,0.00346210941710301,-0.0007989483270237714,0.0018642127630554668,0.9652566043057343,-0.004442066413377785,0.2528752769884891,0.06568142947696115,26.125
0.544,-4.780292852564102,0.22810339743589741,8.553877403846153,0.002663161090079238,0.00026631610900792384,0.0021305288720633907,0.9654910185994456,-0.005210755284959346,0.252011653256134,0.06549860804838156,26.125
0.564,-4.784783076923077,0.18230310897435897,8.53681455128205,0.002929477199087162,0.0,0.0023968449810713144,0.9654462116953759,-0.005776393931397033,0.25220796173810156,0.06535586914814377,26.125
0.585,-4.737186698717949,0.22720535256410257,8.54759108974359,0.0031957933080950856,-0.0010652644360316954,0.0021305288720633907,0.9655818111304522,-0.005488849386441245,0.2516729348936822,0.06543983793110524,26.125
0.605,-4.751555416666666,0.23349166666666665,8.51256733974359,0.004527373853134705,-0.001331580545039619,0.0023968449810713144,0.9655096207554619,-0.004866650515315756,0.2519216371334085,0.06559707832997749,26.125
0.625,-4.785681121794871,0.2388799358974359,8.552979358974358,0.003994741635118857,0.0,0.0021305288720633907,0.9653689995350672,-0.004555782269059917,0.252446705105461,0.06567039413599406,26.125
0.645,-4.774006538461538,0.2263073076923077,8.524241923076923,0.003994741635118857,0.0007989483270237714,0.0021305288720633907,0.9653138549245971,-0.005097475305517716,0.25268478859006255,0.06552537562898135,26.125
0.665,-4.751555416666666,0.2676173717948718,8.564653942307691,0.004527373853134705,-0.00026631610900792384,0.002663161090079238,0.9653561710549873,-0.004447186112441389,0.2524903727879454,0.06569853264068962,26.125
0.685,-4.75963782051282,0.21373467948717947,8.535916506410256,0.003994741635118857,-0.001331580545039619,0.002929477199087162,0.9655066042591558,-0.004507027109180208,0.2519140055377324,0.06569640517202203,26.125
0.705,-4.734492564102564,0.265821282051282,8.552979358974358,0.0031957933080950856,0.0005326322180158477,0.002663161090079238,0.9656110875355207,-0.004054369748085349,0.25148658202201385,0.06582772043219834,26.125
0.725,-4.75963782051282,0.21193858974358973,8.498198621794872,0.002929477199087162,0.0021305288720633907,0.002929477199087162,0.9654715716236903,-0.004282095371368427,0.25203205271527457,0.06577349352008732,26.125
0.745,-4.772210448717948,0.2263073076923077,8.517057564102563,0.0031957933080950856,0.0015978966540475428,0.00346210941710301,0.9653510014543009,-0.0046256389842792055,0.2525082939778472,0.06569329438810995,26.125
0.766,-4.803642019230769,0.21732685897435897,8.519751698717949,0.00346210941710301,0.0018642127630554668,0.002663161090079238,0.9652229080913506,-0.004928256936536889,0.2530121332414813,0.06561486425985039,26.125
0.786,-4.765026089743589,0.21373467948717947,8.523343878205129,0.003994741635118857,0.001331580545039619,0.0018642127630554668,0.965329658645239,-0.005341035921060522,0.25262365785761315,0.0655088617348528,26.125
0.806,-4.777598717948718,0.2532486538461538,8.554775448717947,0.0031957933080950856,0.00026631610900792384,0.0021305288720633907,0.9653668448037894,-0.004699146041210103,0.25244941539202614,0.06568154724337852,26.125
0.826,-4.756943685897435,0.19936596153846153,8.532324326923076,0.002663161090079238,0.001331580545039619,0.0023968449810713144,0.9654363569440653,-0.005240058138512325,0.2522064528545604,0.06555217479074926,26.125
0.846,-4.772210448717948,0.23977798076923076,8.554775448717947,0.0031957933080950856,-0.0005326322180158477,0.0023968449810713144,0.96548924827242,-0.00461959083853551,0.25197180862800805,0.0657219788774848,26.125
0.866,-4.782986987179487,0.21014249999999998,8.530528237179487,0.0037284255261109335,-0.00026631610900792384,0.0018642127630554668,0.9654080334728337,-0.005095211159646578,0.25230748994386404,0.06559190687563314,26.125
0.886,-4.764128044871795,0.2505545192307692,8.561959807692308,0.00346210941710301,0.00026631610900792384,0.0015978966540475428,0.9654965131032011,-0.0045710483968284905,0.2519427642560212,0.06572999498820391,26.125
0.906,-4.757841730769231,0.2191229487179487,8.571838301282051,0.0037284255261109335,-0.00026631610900792384,0.0023968449810713144,0.9656230583368415,-0.004894927378262944,0.2514709027313376,0.0656546569075861,26.125
0.926,-4.770414358974358,0.2263073076923077,8.523343878205129,0.0037284255261109335,-0.0015978966540475428,0.0023968449810713144,0.9654817867400884,-0.004988616470263985,0.25201839004971327,0.06562594194089438,26.125
0.947,-4.767720224358974,0.21463272435897432,8.554775448717947,0.002663161090079238,-0.001331580545039619,0.002663161090079238,0.9655663424451945,-0.005506312224832402,0.25171486676812677,0.06550530291966081,26.125
0.967,-4.767720224358974,0.2263073076923077,8.55118326923077,0.0031957933080950856,-0.0005326322180158477,0.0021305288720633907,0.9655394312059433,-0.0048360040542916585,0.2517859004962906,0.06568165773305684,26.125
0.987,-4.79645766025641,0.2532486538461538,8.535018461538462,0.00346210941710301,0.0,0.0021305288720633907,0.9654004701890421,-0.0045134644897237295,0.25230356513152297,0.06576071638143777,26.125
1.007,-4.770414358974358,0.23798189102564102,8.50538298076923,0.002929477199087162,0.0,0.0015978966540475428,0.9652515655456889,-0.0045443763021572004,0.25287622090637085,0.06574481542854259,26.125
1.027,-4.774006538461538,0.19218160256410255,8.548489134615384,0.0023968449810713144,-0.0005326322180158477,0.002929477199087162,0.9653177778682878,-0.005101024988789775,0.25264605307114585,0.06561660722002116,26.125
1.047,-4.765026089743589,0.2667193269230769,8.543100865384615,0.0031957933080950856,-0.0007989483270237714,0.0037284255261109335,0.9653642131385346,-0.004466194989707892,0.25243230958646934,0.065802113724202,26.125
1.067,-4.766822179487179,0.21553076923076925,8.544896955128205,0.004261057744126781,-0.0005326322180158477,0.0037284255261109335,0.9654419402604526,-0.004978288841999245,0.25215724944175877,0.06567951111499774,26.125
1.087,-4.754249551282051,0.24875842948717947,8.499096666666667,0.003994741635118857,0.0,0.002663161090079238,0.965377713203343,-0.004342743478721009,0.25237164130376805,0.06584501571876374,26.125
1.107,-4.776700673076923,0.19846791666666666,8.556571538461538,0.0031957933080950856,-0.00026631610900792384,0.0021305288720633907,0.9654172949958932,-0.004933536477800116,0.25224849865090443,0.06569476135126358,26.125
1.128,-4.770414358974358,0.23349166666666665,8.525139967948718,0.002929477199087162,0.0010652644360316954,0.0018642127630554668,0.9652693503710669,-0.004675638513681557,0.2528023208229425,0.06575869695517063,26.125
1.148,-4.779394807692308,0.22451121794871792,8.55118326923077,0.0023968449810713144,0.0015978966540475428,0.0018642127630554668,0.9653794181649077,-0.005097196990432109,0.2523995540456409,0.06565868323372594,26.125
1.168,-4.764128044871795,0.2505545192307692,8.522445833333332,0.0023968449810713144,-0.0005326322180158477,0.0018642127630554668,0.9653782372836552,-0.004426793658777927,0.25236971137106495,0.06583913167327302,26.125
1.188,-4.764128044871795,0.2505545192307692,8.522445833333332,0.0023968449810713144,-0.0005326322180158477,0.0018642127630554668,0.9653782372836552,-0.004426793658777927,0.25236971137106495,0.06583913167327302,26.125
1.208,-4.772210448717948,0.24965647435897434,8.518853653846154,0.003994741635118857,-0.001331580545039619,0.0023968449810713144,0.9653000832529018,-0.0043704158955129085,0.25266593977891555,0.06585265076273294,26.125
1.228,-4.765924134615385,0.22271512820512818,8.530528237179487,0.002929477199087162,-0.0005326322180158477,0.0018642127630554668,0.9653823662003175,-0.004897421130286084,0.252375965983811,0.06572118448025115,26.125
1.249,-4.800947884615384,0.23798189102564102,8.525139967948718,0.0021305288720633907,-0.00026631610900792384,0.0018642127630554668,0.9652326179795085,-0.00479348674175559,0.25294212204949507,0.06575179515708483,26.125
1.269,-4.770414358974358,0.18499724358974357,8.543100865384615,0.0023968449810713144,-0.0005326322180158477,0.002663161090079238,0.9653019313977019,-0.005344845468022861,0.2527005991604778,0.06562027926430183,26.125
1.289,-4.770414358974358,0.18499724358974357,8.543100865384615,0.0023968449810713144,-0.0005326322180158477,0.002663161090079238,0.9653019313977019,-0.005344845468022861,0.2527005991604778,0.06562027926430183,26.125
1.309,-4.76143391025641,0.21822490384615384,8.57363439102564,0.00346210941710301,0.00026631610900792384,0.0018642127630554668,0.9654925223325516,-0.005024567776551653,0.25195313116674656,0.06571577233707586,26.125
1.329,-4.76323,0.22989948717948716,8.530528237179487,0.0031957933080950856,-0.0007989483270237714,0.0021305288720633907,0.9653507443467182,-0.004776059534438336,0.2524848006727606,0.06577655413441165,26.125
1.349,-4.76323,0.22091903846153846,8.54399891025641,0.0031957933080950856,-0.001331580545039619,0.0021305288720633907,0.965307285331168,-0.00533508987116499,0.25267754262864994,0.06563109898351735,26.125
1.369,-4.788375256410256,0.1975698717948718,8.50717907051282,0.0037284255261109335,0.00026631610900792384,0.0021305288720633907,0.9652645462791835,-0.005897634479713514,0.2528668116772927,0.0654824339509959,26.125
1.390,-4.774904583333333,0.24157407051282048,8.527834102564102,0.004261057744126781,0.001331580545039619,0.0018642127630554668,0.9653242946826635,-0.005291472592423509,0.25261134504739163,0.06563927762071864,26.125
1.410,-4.774006538461538,0.24965647435897434,8.54759108974359,0.002663161090079238,0.0010652644360316954,0.0018642127630554668,0.9653655449941463,-0.004664832546260029,0.25242191891844934,0.0658086523566476,26.125
1.430,-4.756943685897435,0.2191229487179487,8.526936057692307,0.002663161090079238,0.0007989483270237714,0.002663161090079238,0.9654590249555208,-0.005142233658483322,0.25208336194192277,0.06569936983711674,26.125
1.450,-4.755147596153845,0.24157407051282048,8.53861064102564,0.00346210941710301,-0.00026631610900792384,0.0023968449810713144,0.9655413337977571,-0.0045929882594602,0.2517390038019579,0.06585067313015652,26.125
1.470,-4.779394807692308,0.22002099358974359,8.554775448717947,0.0037284255261109335,-0.0010652644360316954,0.0021305288720633907,0.9654830367514474,-0.005120521381337339,0.25198890754245273,0.06571055076277933,26.125
1.490,-4.747963237179487,0.23798189102564102,8.526936057692307,0.002929477199087162,0.00026631610900792384,0.002663161090079238,0.9655731048823697,-0.004607256804768028,0.2516149312689481,0.06585801906433227,26.125
1.511,-4.782088942307692,0.2218170833333333,8.525139967948718,0.0023968449810713144,0.0,0.0023968449810713144,0.9654449456309755,-0.004884940340997951,0.2521190433035818,0.06578892245016878,26.125
1.531,-4.782088942307692,0.2218170833333333,8.525139967948718,0.0023968449810713144,0.0,0.0023968449810713144,0.9654449456309755,-0.004884940340997951,0.2521190433035818,0.06578892245016878,26.125
1.551,-4.757841730769231,0.21553076923076925,8.53861064102564,0.0031957933080950856,0.001331580545039619,0.0015978966540475428,0.9655390837950312,-0.0055891085392768885,0.25178959131397927,0.06561281304689841,26.125
1.571,-4.762331955128205,0.2604330128205128,8.53322237179487,0.00346210941710301,0.0005326322180158477,0.0018642127630554668,0.9655076960366002,-0.004918745604969769,0.25187885711165403,0.06578553166081955,26.125
1.591,-4.762331955128205,0.2604330128205128,8.53322237179487,0.00346210941710301,0.0005326322180158477,0.0018642127630554668,0.9655076960366002,-0.004918745604969769,0.25187885711165403,0.06578553166081955,26.125
1.612,-4.769516314102564,0.23977798076923076,8.525139967948718,0.0021305288720633907,-0.0021305288720633907,0.0021305288720633907,0.9654301559140209,-0.004973376986351878,0.2521760202694298,0.06578095753524044,26.125
1.632,-4.800947884615384,0.2092444551282051,8.543100865384615,0.0031957933080950856,-0.0007989483270237714,0.0021305288720633907,0.9653251783177683,-0.005362327792618967,0.2525965910620874,0.06567729996144694,26.125
1.652,-4.767720224358974,0.23618580128205127,8.50897516025641,0.00346210941710301,0.0005326322180158477,0.002663161090079238,0.9652642549271743,-0.004720415918830951,0.2527974607065835,0.0658489156611088,26.125
1.672,-4.778496762820512,0.18230310897435897,8.54040673076923,0.00346210941710301,-0.0005326322180158477,0.002929477199087162,0.965299507368339,-0.005307197458365369,0.2526883982856664,0.06570592135724537,26.125
1.692,-4.79466157051282,0.25863692307692304,8.524241923076923,0.003994741635118857,-0.0007989483270237714,0.002663161090079238,0.9652097880955809,-0.004729768816630276,0.2530032304110046,0.06585635620819934,26.125
1.712,-4.770414358974358,0.2218170833333333,8.545795,0.002663161090079238,-0.0005326322180158477,0.0018642127630554668,0.9653426550825944,-0.005029561622446472,0.252507920495758,0.06578762706528574,26.125
1.732,-4.75963782051282,0.2532486538461538,8.525139967948718,0.0021305288720633907,-0.001331580545039619,0.0015978966540475428,0.9653881211030144,-0.004404332179107809,0.25230163042742104,0.06595653701425434,26.125
1.753,-4.767720224358974,0.22989948717948716,8.54759108974359,0.003994741635118857,-0.0010652644360316954,0.0023968449810713144,0.9654913029734149,-0.004851729009927489,0.2519271470151619,0.06584616317685363,26.125
1.773,-4.774904583333333,0.23259362179487178,8.51077125,0.004793689962142629,-0.0005326322180158477,0.002663161090079238,0.9653422821905694,-0.004829170443571833,0.2524984282930623,0.06584452169667192,26.125
1.793,-4.75963782051282,0.2505545192307692,8.539508685897436,0.003994741635118857,0.0,0.002929477199087162,0.9654368446570047,-0.004319524639202641,0.25210820127534744,0.06598860155607691,26.125
1.813,-4.773108493589743,0.25235060897435896,8.552081314102564,0.0021305288720633907,0.00026631610900792384,0.0018642127630554668,0.9654513795568113,-0.003665107327441571,0.2520163268954086,0.06616624273959379,26.125
1.833,-4.768618269230769,0.22810339743589741,8.53861064102564,0.0018642127630554668,0.0,0.0015978966540475428,0.965448985439935,-0.004280135756566376,0.25205658190535896,0.06601072995424878,26.125
1.853,-4.783885032051281,0.23798189102564102,8.523343878205129,0.002929477199087162,-0.0007989483270237714,0.001331580545039619,0.9653106486880523,-0.004442667805927398,0.2525967525735115,0.06595828091706242,26.125
1.874,-4.774904583333333,0.22271512820512818,8.554775448717947,0.00346210941710301,-0.0007989483270237714,0.0015978966540475428,0.9654078586211637,-0.004917966971648128,0.2522481809961293,0.06583566888479876,26.125
1.894,-4.781190897435897,0.2316955769230769,8.504484935897436,0.0037284255261109335,0.0005326322180158477,0.002929477199087162,0.9652557505149438,-0.0049051948290333445,0.2528289005688338,0.06583936663331773,26.125
1.914,-4.784783076923077,0.2263073076923077,8.554775448717947,0.0037284255261109335,0.0018642127630554668,0.0031957933080950856,0.9653380298946438,-0.004371650661973817,0.2524841443373108,0.06599343579382376,26.125
1.934,-4.791967435897435,0.22451121794871792,8.552081314102564,0.00346210941710301,0.00026631610900792384,0.0021305288720633907,0.9653878919594869,-0.004944286192324826,0.25232081328994266,0.06584815314622308,26.125
1.954,-4.7587397756410255,0.22720535256410257,8.537712596153845,0.00346210941710301,-0.0007989483270237714,0.0021305288720633907,0.9655213130442175,-0.00523267179704989,0.2518215394681305,0.06578088980194231,26.125
1.974,-4.755147596153845,0.22540926282051282,8.544896955128205,0.0031957933080950856,-0.001331580545039619,0.002929477199087162,0.9656717187106926,-0.005284770660673604,0.2512421278141921,0.06578446695686191,26.125
1.995,-4.7587397756410255,0.22810339743589741,8.563755897435897,0.002929477199087162,-0.0015978966540475428,0.0021305288720633907,0.9655921523305749,-0.004697733125127454,0.25151934149875493,0.06593745152131414,26.125
2.015,-4.767720224358974,0.2290014423076923,8.53322237179487,0.002929477199087162,-0.001331580545039619,0.0023968449810713144,0.9654446733742016,-0.004648186391935177,0.2520825754980391,0.06594961824698205,26.125
2.035,-4.770414358974358,0.2290014423076923,8.516159519230769,0.0031957933080950856,0.0005326322180158477,0.0023968449810713144,0.9653187981854785,-0.004943800900594653,0.252578840074976,0.06587189270681752,26.125
2.055,-4.774904583333333,0.22720535256410257,8.54399891025641,0.0031957933080950856,0.00026631610900792384,0.001331580545039619,0.965448868830146,-0.005247514491404048,0.2520952107181686,0.06579475662403642,26.125
2.075,-4.747963237179487,0.2478603846153846,8.526038012820512,0.00346210941710301,-0.001331580545039619,0.001331580545039619,0.9655100942483339,-0.004637725256871122,0.2518317293176923,0.06595096297913941,26.125
2.095,-4.755147596153845,0.23079753205128203,8.532324326923076,0.0037284255261109335,-0.0007989483270237714,0.0023968449810713144,0.9655896601037819,-0.005156214468398902,0.251550040349656,0.06582248060583466,26.125
2.116,-4.778496762820512,0.2290014423076923,8.534120416666667,0.0031957933080950856,-0.0007989483270237714,0.0021305288720633907,0.9654409360021855,-0.005091555756698093,0.2521182296517583,0.06583519900830911,26.125
2.136,-4.783885032051281,0.24426820512820513,8.524241923076923,0.002929477199087162,-0.0018642127630554668,0.0018642127630554668,0.9653130445758397,-0.004719619501487197,0.25259055509419787,0.06592770768568701,26.125
2.156,-4.781190897435897,0.22810339743589741,8.535916506410256,0.0031957933080950856,-0.00026631610900792384,0.0021305288720633907,0.9652765978147774,-0.005293309544764536,0.2527571992726221,0.06577893888663716,26.125
2.176,-4.785681121794871,0.24606429487179488,8.545795,0.002929477199087162,0.001331580545039619,0.0021305288720633907,0.9652701210964366,-0.004622654652323772,0.2527482175634255,0.06595879699439078,26.125
2.196,-4.764128044871795,0.24426820512820513,8.54759108974359,0.002663161090079238,0.0005326322180158477,0.0021305288720633907,0.9654087279664844,-0.004415187055401753,0.2522044312272849,0.06602589612206826,26.125
2.216,-4.778496762820512,0.2263073076923077,8.524241923076923,0.002929477199087162,-0.0005326322180158477,0.002929477199087162,0.965315022665417,-0.004854418634006413,0.2525829682824787,0.06591802310297039,26.125
2.236,-4.785681121794871,0.23079753205128203,8.516159519230769,0.002663161090079238,-0.00026631610900792384,0.002929477199087162,0.965169587977983,-0.004959304672767868,0.2531417339371582,0.06589639048432148,26.125
2.256,-4.773108493589743,0.22361317307692305,8.530528237179487,0.0018642127630554668,-0.0010652644360316954,0.002663161090079238,0.9653060742385912,-0.00524124881910059,0.25262887720712923,0.06584347158193404,26.125
2.277,-4.746167147435897,0.19936596153846153,8.526038012820512,0.0021305288720633907,-0.0010652644360316954,0.0023968449810713144,0.9654253952184834,-0.005634514346730586,0.2521866109503935,0.06575691425748847,26.125
2.297,-4.757841730769231,0.22810339743589741,8.544896955128205,0.00346210941710301,0.0010652644360316954,0.002929477199087162,0.9655387227661721,-0.005229460078415148,0.25172970889626034,0.06587701606297527,26.125
2.317,-4.753351506410256,0.24875842948717947,8.508077115384616,0.0031957933080950856,0.001331580545039619,0.0031957933080950856,0.9654595163395114,-0.00461874822238222,0.25200117724389726,0.06604540969685027,26.125
2.337,-4.779394807692308,0.23977798076923076,8.54759108974359,0.002929477199087162,0.0007989483270237714,0.00346210941710301,0.9653056272936261,-0.0045395239511793264,0.2525836977500452,0.06607506540647229,26.125
2.357,-4.779394807692308,0.23977798076923076,8.54759108974359,0.002929477199087162,0.0007989483270237714,0.00346210941710301,0.9653056272936261,-0.0045395239511793264,0.2525836977500452,0.06607506540647229,26.125
2.377,-4.754249551282051,0.24965647435897434,8.529630192307692,0.002929477199087162,-0.0005326322180158477,0.00346210941710301,0.9655004735836982,-0.004094811479295298,0.2518041803311067,0.06623233950558646,26.125
2.398,-4.780292852564102,0.23259362179487178,8.561061762820513,0.0018642127630554668,-0.0010652644360316954,0.002929477199087162,0.9654593607225699,-0.004669846297405559,0.2519872690776915,0.06609713724127955,26.125
2.418,-4.773108493589743,0.2406760256410256,8.53861064102564,0.0018642127630554668,-0.00026631610900792384,0.002663161090079238,0.9653133953955603,-0.0044487047592348845,0.25253283697320034,0.06616210354974408,26.125
2.438,-4.771312403846154,0.2406760256410256,8.535018461538462,0.002663161090079238,0.0005326322180158477,0.002929477199087162,0.9654499202216557,-0.004681204856688408,0.25201685901401005,0.06612140831683155,26.125
2.458,-4.774006538461538,0.22271512820512818,8.51436342948718,0.0023968449810713144,0.00026631610900792384,0.0023968449810713144,0.9653352552976495,-0.005044557234968276,0.2524724993313423,0.066030556586405,26.125
2.478,-4.778496762820512,0.24875842948717947,8.517057564102563,0.0021305288720633907,-0.00026631610900792384,0.0018642127630554668,0.9652335616218302,-0.0045258017531227945,0.25283512721529927,0.06616711481809937,26.125
2.498,-4.779394807692308,0.20206009615384612,8.54040673076923,0.0023968449810713144,-0.0007989483270237714,0.0018642127630554668,0.9652744596288918,-0.00511877563618851,0.2527068319301613,0.06601721608761356,26.125
2.519,-4.770414358974358,0.24606429487179488,8.535018461538462,0.002663161090079238,-0.0005326322180158477,0.0018642127630554668,0.9653356922898246,-0.004521316014067992,0.25244233215704204,0.0661772455451237,26.125
2.539,-4.774904583333333,0.2577388782051282,8.527834102564102,0.002663161090079238,-0.0007989483270237714,0.0015978966540475428,0.9652735586377997,-0.003893104791171426,0.25264757359347545,0.06634006547428632,26.25
2.559,-4.756943685897435,0.22271512820512818,8.521547788461538,0.00346210941710301,-0.0005326322180158477,0.0023968449810713144,0.9653101565222488,-0.0044792410835711016,0.2525359857297839,0.06619527192929307,26.25
2.579,-4.774904583333333,0.23977798076923076,8.535916506410256,0.0037284255261109335,0.00026631610900792384,0.0023968449810713144,0.9651627815923522,-0.004232025190878039,0.25308816910575826,0.06625159356870153,26.25
2.599,-4.774006538461538,0.21463272435897432,8.532324326923076,0.003994741635118857,0.00026631610900792384,0.0021305288720633907,0.9652294532784323,-0.004778810273071687,0.25286079212701,0.06611115867305357,26.25
2.619,-4.765924134615385,0.22002099358974359,8.521547788461538,0.0031957933080950856,0.0,0.0018642127630554668,0.9653676575469842,-0.0050112332524681405,0.25234245474638706,0.06605648216568606,26.25
2.639,-4.762331955128205,0.25684083333333335,8.53681455128205,0.0037284255261109335,0.0,0.0021305288720633907,0.9654940757122743,-0.0046641977132911554,0.25183950873838123,0.0661535854100394,26.25
2.660,-4.7587397756410255,0.2290014423076923,8.526936057692307,0.0037284255261109335,-0.00026631610900792384,0.0021305288720633907,0.9653684762996327,-0.004937700226690499,0.2523343069933574,0.06608117430538647,26.25
2.680,-4.782986987179487,0.22451121794871792,8.526038012820512,0.003994741635118857,-0.0005326322180158477,0.0031957933080950856,0.9652433937723964,-0.005222477952876936,0.2528244284060859,0.06601306616052767,26.25
2.700,-4.779394807692308,0.24696233974358975,8.515261474358974,0.0031957933080950856,0.0,0.0031957933080950856,0.9651753394689865,-0.004602991718379355,0.25305190085848606,0.06618241473438581,26.25
2.720,-4.778496762820512,0.22451121794871792,8.530528237179487,0.0023968449810713144,-0.0005326322180158477,0.0021305288720633907,0.9652500195120112,-0.005153988128159942,0.2527927706394536,0.0660427993869544,26.25
2.740,-4.768618269230769,0.2406760256410256,8.553877403846153,0.002929477199087162,-0.0007989483270237714,0.001331580545039619,0.9653789915035241,-0.0048198263303544445,0.25228266457222764,0.0661334196463544,26.25
2.760,-4.779394807692308,0.24426820512820513,8.506281025641025,0.004261057744126781,-0.00026631610900792384,0.001331580545039619,0.9652338171397381,-0.004580110342038016,0.2528299852725124,0.06617929726286476,26.25
2.781,-4.755147596153845,0.22361317307692305,8.562857852564102,0.004261057744126781,-0.00026631610900792384,0.0015978966540475428,0.9653775550986166,-0.004748912172814301,0.25228904844370226,0.06613516447672677,26.25
2.801,-4.765026089743589,0.2218170833333333,8.537712596153845,0.004261057744126781,0.0010652644360316954,0.0031957933080950856,0.9654497951427286,-0.005266642665894476,0.2520346772841057,0.06601118829554656,26.25
2.821,-4.76143391025641,0.2388799358974359,8.528732147435898,0.0037284255261109335,0.0007989483270237714,0.00346210941710301,0.9654298409271233,-0.004584510530088881,0.2520747113776822,0.06620078847330521,26.25
2.841,-4.7587397756410255,0.22091903846153846,8.517057564102563,0.0037284255261109335,0.0,0.002929477199087162,0.9654180997702151,-0.005174763387464873,0.2521467825798577,0.06605387569686438,26.25
2.861,-4.766822179487179,0.24606429487179488,8.545795,0.0037284255261109335,-0.0010652644360316954,0.0021305288720633907,0.9654542012887403,-0.004521155242093302,0.2519758317694697,0.06622631329978654,26.25
2.881,-4.766822179487179,0.23618580128205127,8.531426282051282,0.002929477199087162,-0.001331580545039619,0.0015978966540475428,0.9653517644029985,-0.004916278671792843,0.25238915831051134,0.06611742535330997,26.25
2.901,-4.750657371794872,0.22091903846153846,8.549387179487178,0.0031957933080950856,-0.0007989483270237714,0.0018642127630554668,0.9654959532081381,-0.005100291621534085,0.25184398503465116,0.06607691401655007,26.25
2.922,-4.767720224358974,0.2316955769230769,8.549387179487178,0.0023968449810713144,0.00026631610900792384,0.0021305288720633907,0.9655266385400687,-0.004457981800761721,0.25169222673931885,0.06625299741734808,26.25
2.942,-4.753351506410256,0.23708384615384615,8.520649743589743,0.002929477199087162,0.0010652644360316954,0.002663161090079238,0.9654214071460462,-0.004868528972164631,0.25211493762546283,0.06615030064863138,26.25
2.962,-4.779394807692308,0.21732685897435897,8.532324326923076,0.0037284255261109335,0.0015978966540475428,0.003994741635118857,0.9653340268903303,-0.005340061362247741,0.2524684807618292,0.06604064274490817,26.25
2.982,-4.750657371794872,0.2478603846153846,8.53681455128205,0.0037284255261109335,0.001331580545039619,0.0037284255261109335,0.9654263029469016,-0.004837380470057883,0.2520859818462827,0.06619147290294328,26.25
3.002,-4.782986987179487,0.21822490384615384,8.535018461538462,0.00346210941710301,0.0010652644360316954,0.002663161090079238,0.9653301162479567,-0.0052784908598986,0.2524748198276697,0.06607851051540285,26.25
3.022,-4.782986987179487,0.22540926282051282,8.53322237179487,0.002929477199087162,0.001331580545039619,0.002663161090079238,0.9651807748229547,-0.005381680890515427,0.2530493562477021,0.06605401369770879,26.25
3.042,-4.774904583333333,0.2290014423076923,8.526936057692307,0.0037284255261109335,0.0007989483270237714,0.0018642127630554668,0.9653087989798014,-0.005063706864093067,0.25254423184521946,0.06614145785115466,26.25
3.063,-4.775802628205128,0.23798189102564102,8.520649743589743,0.0031957933080950856,0.00026631610900792384,0.001331580545039619,0.9651901294069762,-0.004602936922400803,0.2529772495398238,0.06625208134314568,26.25
3.083,-4.752453461538461,0.22540926282051282,8.559265673076922,0.0023968449810713144,0.0,0.0018642127630554668,0.9653354280117146,-0.004749330947085147,0.25242643316635216,0.0662257587341059,26.25
3.103,-4.779394807692308,0.24337016025641023,8.561061762820513,0.0031957933080950856,-0.00026631610900792384,0.0021305288720633907,0.9654503257708902,-0.004336928682878992,0.25196342380478004,0.06634223830301886,26.25
3.123,-4.765026089743589,0.2290014423076923,8.554775448717947,0.0037284255261109335,-0.0007989483270237714,0.0018642127630554668,0.9655323310248043,-0.0048521255111089396,0.25167442493093506,0.06620995740457426,26.25
3.143,-4.762331955128205,0.24606429487179488,8.53681455128205,0.002663161090079238,-0.0007989483270237714,0.0023968449810713144,0.9654585674234408,-0.004247599440309646,0.25192557956920475,0.06637179255069545,26.25
3.163,-4.8027439743589735,0.2406760256410256,8.548489134615384,0.0023968449810713144,0.0005326322180158477,0.0031957933080950856,0.9653132230319027,-0.004381740993314173,0.25248636108131606,0.06634620752946578,26.25
3.184,-4.774006538461538,0.2263073076923077,8.51795560897436,0.0031957933080950856,0.0015978966540475428,0.0037284255261109335,0.9653224881424354,-0.004980485242738744,0.2524760781155605,0.06620814627090793,26.25
3.204,-4.768618269230769,0.2191229487179487,8.53322237179487,0.0031957933080950856,0.0015978966540475428,0.0031957933080950856,0.9651979586975722,-0.004522276188880792,0.252927127386392,0.06633489109193724,26.25
3.224,-4.764128044871795,0.24247211538461536,8.549387179487178,0.00346210941710301,0.0010652644360316954,0.0021305288720633907,0.9653432375174346,-0.004461808902412983,0.2523665300416326,0.06636008254532293,26.25
3.244,-4.768618269230769,0.23259362179487178,8.513465384615385,0.004261057744126781,0.0023968449810713144,0.002663161090079238,0.9654085938046114,-0.004990700662506039,0.25214110276478063,0.06622842449930695,26.25
3.264,-4.785681121794871,0.2388799358974359,8.535018461538462,0.003994741635118857,0.0021305288720633907,0.00346210941710301,0.965296272623379,-0.004463029654421819,0.25254288823187077,0.06637226099222356,26.25
3.284,-4.755147596153845,0.23618580128205127,8.553877403846153,0.0031957933080950856,0.0007989483270237714,0.002663161090079238,0.9653302637788868,-0.005052535091847301,0.25243970511559766,0.06622800769221951,26.25
3.305,-4.788375256410256,0.2263073076923077,8.535018461538462,0.00346210941710301,-0.0005326322180158477,0.001331580545039619,0.9651990745414452,-0.005286584150247214,0.2529551885010671,0.06615490263578262,26.25
3.325,-4.775802628205128,0.2640251923076923,8.55118326923077,0.0031957933080950856,0.0,0.0018642127630554668,0.9652516631335217,-0.004669169806657362,0.2527234128518443,0.06631969743449696,26.25
3.345,-4.742574967948718,0.2290014423076923,8.522445833333332,0.00346210941710301,0.0010652644360316954,0.0023968449810713144,0.9653940339276624,-0.004801156095075516,0.25218258015534134,0.06629671502586597,26.25
3.365,-4.76143391025641,0.22091903846153846,8.556571538461538,0.00346210941710301,0.001331580545039619,0.002929477199087162,0.9655120945922557,-0.0051536266771527025,0.25174344110159286,0.06621990026024273,26.25
3.385,-4.756045641025641,0.22720535256410257,8.549387179487178,0.0031957933080950856,0.00026631610900792384,0.0031957933080950856,0.965658603300301,-0.005185771188965668,0.2511771705207999,0.06623140235909823,26.25
3.405,-4.749759326923076,0.22271512820512818,8.541304775641025,0.0031957933080950856,0.00026631610900792384,0.002929477199087162,0.9656424303947184,-0.005779478310882355,0.2512644535122382,0.06608682662249592,26.25
3.426,-4.783885032051281,0.23259362179487178,8.51795560897436,0.00346210941710301,0.0010652644360316954,0.002663161090079238,0.9654937540358016,-0.005542768557276533,0.25182427169259897,0.06614850581130144,26.25
3.446,-4.7587397756410255,0.23259362179487178,8.550285224358975,0.003994741635118857,0.0010652644360316954,0.0018642127630554668,0.9655762514351464,-0.005000427587410183,0.25148171730758917,0.06629060452597983,26.25
3.466,-4.771312403846154,0.23618580128205127,8.50897516025641,0.0037284255261109335,0.0018642127630554668,0.0021305288720633907,0.965420951219605,-0.004898768580483563,0.2520740263740229,0.06631043839559762,26.25
3.486,-4.749759326923076,0.2343897115384615,8.559265673076922,0.002929477199087162,0.0015978966540475428,0.002929477199087162,0.9655638277488181,-0.004835782220022165,0.25151803394919175,0.06634597464582592,26.25
3.506,-4.778496762820512,0.2191229487179487,8.531426282051282,0.0021305288720633907,0.00026631610900792384,0.002929477199087162,0.9654422468583528,-0.005163768864264214,0.25199768919300813,0.06627041657931498,26.25
3.526,-4.767720224358974,0.23079753205128203,8.523343878205129,0.0023968449810713144,0.0,0.0031957933080950856,0.9652909836828315,-0.005045735932526325,0.252568307541402,0.0663106883933688,26.25
3.547,-4.770414358974358,0.2406760256410256,8.50717907051282,0.002929477199087162,-0.0005326322180158477,0.00346210941710301,0.9651738660490129,-0.004576608394488857,0.2529894612109535,0.06644392724543935,26.25
3.567,-4.764128044871795,0.2218170833333333,8.549387179487178,0.00346210941710301,0.00026631610900792384,0.0031957933080950856,0.9653028356648614,-0.004874258309398791,0.25250713769064986,0.06638390225488469,26.25
3.587,-4.756045641025641,0.2128366346153846,8.51795560897436,0.002929477199087162,0.0007989483270237714,0.0031957933080950856,0.9653739023325643,-0.005408705867729706,0.25225646278995806,0.06626199194660318,26.25
3.607,-4.773108493589743,0.24965647435897434,8.530528237179487,0.00346210941710301,0.0015978966540475428,0.0031957933080950856,0.9653204744375219,-0.004751815788075313,0.25242656194996693,0.06644270238749653,26.25
3.627,-4.7605358653846155,0.2290014423076923,8.548489134615384,0.0037284255261109335,0.0007989483270237714,0.0023968449810713144,0.9654586226537998,-0.004952945723576443,0.2519050360051598,0.06640006857923086,26.25
3.647,-4.757841730769231,0.22810339743589741,8.509873205128205,0.0031957933080950856,0.0005326322180158477,0.0023968449810713144,0.9653300738715277,-0.005230735526127214,0.2524108036288766,0.06632702387768871,26.25
3.668,-4.772210448717948,0.2191229487179487,8.539508685897436,0.00346210941710301,0.0010652644360316954,0.002663161090079238,0.9653983197935925,-0.005766668882314455,0.25217210755078,0.06619711355571435,26.25
3.688,-4.779394807692308,0.23259362179487178,8.544896955128205,0.0037284255261109335,0.0007989483270237714,0.002663161090079238,0.9653319280537627,-0.0051304954977747005,0.25239565655370744,0.06636549742732112,26.25
3.708,-4.768618269230769,0.22451121794871792,8.531426282051282,0.0037284255261109335,0.0005326322180158477,0.002663161090079238,0.9654024132920055,-0.0056617262852318075,0.2521487359290134,0.06623549074962483,26.25
3.728,-4.762331955128205,0.2721075961538461,8.531426282051282,0.0037284255261109335,0.00026631610900792384,0.002929477199087162,0.9653938225173262,-0.004978883554998709,0.25214664757825306,0.06642323598696029,26.25
3.748,-4.762331955128205,0.2721075961538461,8.531426282051282,0.0037284255261109335,0.00026631610900792384,0.002929477199087162,0.9653938225173262,-0.004978883554998709,0.25214664757825306,0.06642323598696029,26.25
3.769,-4.769516314102564,0.2218170833333333,8.531426282051282,0.00346210941710301,0.0,0.002663161090079238,0.9654324759435489,-0.00481601561457418,0.2519865400605678,0.06648100492180538,26.25
3.789,-4.764128044871795,0.22720535256410257,8.525139967948718,0.0037284255261109335,0.0005326322180158477,0.002663161090079238,0.9653627759878695,-0.00532266708091943,0.2522788626919513,0.0663457262451459,26.25
3.810,-4.764128044871795,0.21373467948717947,8.51256733974359,0.004793689962142629,0.0005326322180158477,0.0023968449810713144,0.9652113458060316,-0.005196101326816448,0.2528547473442142,0.06636667238761076,26.25
3.830,-4.764128044871795,0.2263073076923077,8.529630192307692,0.004527373853134705,0.0,0.0021305288720633907,0.965340001336735,-0.004874364405173285,0.2523463357185379,0.06645486618950588,26.25
3.850,-4.777598717948718,0.22361317307692305,8.54040673076923,0.0037284255261109335,0.001331580545039619,0.0018642127630554668,0.9652138655597576,-0.005182781329743255,0.25284572812237477,0.0663654298497677,26.25
3.871,-4.799151794871794,0.23798189102564102,8.53322237179487,0.002929477199087162,0.0007989483270237714,0.0015978966540475428,0.965069740193045,-0.004922367420316317,0.25338256911835816,0.06643373036107722,26.25
3.891,-4.766822179487179,0.2541466987179487,8.543100865384615,0.0023968449810713144,-0.0005326322180158477,0.0023968449810713144,0.9651928837600706,-0.004553203565214304,0.25289086033018165,0.06654455828745888,26.25
3.911,-4.793763525641025,0.2343897115384615,8.53681455128205,0.002663161090079238,-0.001331580545039619,0.0023968449810713144,0.965106999318105,-0.005010433593936422,0.25324034661293554,0.06642817376508528,26.25
3.932,-4.764128044871795,0.23798189102564102,8.549387179487178,0.002929477199087162,-0.0015978966540475428,0.002929477199087162,0.9652540638310357,-0.0048797701453904725,0.25266787404842245,0.06648101627419281,26.25
3.952,-4.765026089743589,0.24606429487179488,8.526936057692307,0.0031957933080950856,0.0,0.002663161090079238,0.9653410905851295,-0.004353545539620008,0.25230590708987477,0.06662848277353178,26.25
3.972,-4.765026089743589,0.23259362179487178,8.54220282051282,0.002929477199087162,0.00026631610900792384,0.0021305288720633907,0.9654338774463347,-0.004843626405681867,0.2519733339164452,0.06650869535037898,26.25
3.992,-4.752453461538461,0.22361317307692305,8.526038012820512,0.002663161090079238,0.0,0.001331580545039619,0.9655096399894915,-0.005381370248081265,0.25170833866660336,0.06637083838037702,26.25
4.012,-4.786579166666666,0.22810339743589741,8.539508685897436,0.002663161090079238,-0.00026631610900792384,0.0018642127630554668,0.9653596291888377,-0.005320166339223217,0.2522811400177672,0.0663830441743116,26.25
4.033,-4.76143391025641,0.2316955769230769,8.552979358974358,0.002929477199087162,-0.001331580545039619,0.002929477199087162,0.9655023029011034,-0.0051066358555133815,0.2517194918072191,0.06645692444900439,26.25
4.053,-4.782088942307692,0.2316955769230769,8.539508685897436,0.0031957933080950856,-0.0007989483270237714,0.002663161090079238,0.9653536216556267,-0.005083910514767597,0.2522878428190934,0.06646339876903215,26.25
4.073,-4.779394807692308,0.23977798076923076,8.531426282051282,0.002929477199087162,-0.00026631610900792384,0.002663161090079238,0.9652226786767446,-0.004698858398053829,0.25276860769562676,0.06656675041985567,26.25
4.093,-4.787477211538461,0.22361317307692305,8.523343878205129,0.002663161090079238,-0.00026631610900792384,0.0023968449810713144,0.9651477651597082,-0.0052025131819209616,0.2530781384474507,0.06643930390804546,26.25
4.113,-4.792865480769231,0.21463272435897432,8.527834102564102,0.002663161090079238,-0.0007989483270237714,0.0015978966540475428,0.9651021275581195,-0.005766674835706574,0.25327901174493184,0.06629005244862148,26.25
4.133,-4.76323,0.2406760256410256,8.520649743589743,0.0031957933080950856,0.0007989483270237714,0.0021305288720633907,0.9651948593847979,-0.0052640421446552505,0.25289982992810395,0.06642928044014677,26.25
4.154,-4.75963782051282,0.22091903846153846,8.525139967948718,0.003994741635118857,0.0007989483270237714,0.002663161090079238,0.9653354822971846,-0.00542890613132543,0.2523675651086553,0.06639688002766443,26.25
4.174,-4.775802628205128,0.2191229487179487,8.513465384615385,0.004527373853134705,-0.0007989483270237714,0.0023968449810713144,0.9652041806648193,-0.005649046995471893,0.25288153977261635,0.06633177773457295,26.25
4.194,-4.740778878205128,0.2263073076923077,8.549387179487178,0.003994741635118857,-0.0005326322180158477,0.0021305288720633907,0.9653509706973366,-0.005507932484643042,0.25231251587358944,0.06637439556782655,26.25
4.214,-4.774904583333333,0.23079753205128203,8.562857852564102,0.0037284255261109335,-0.0005326322180158477,0.0018642127630554668,0.9654735404264901,-0.00512924272989927,0.25182405754575926,0.06647689558445524,26.25
4.234,-4.762331955128205,0.23618580128205127,8.535916506410256,0.003994741635118857,0.0007989483270237714,0.002663161090079238,0.9654082054341476,-0.0044881596325568795,0.25204227918068495,0.06664490084722899,26.25
4.255,-4.756943685897435,0.22720535256410257,8.523343878205129,0.0037284255261109335,0.0021305288720633907,0.00346210941710301,0.9654252796380721,-0.005079977884080399,0.25200274751409496,0.06650442470839796,26.25
4.275,-4.747963237179487,0.20565227564102562,8.55118326923077,0.003994741635118857,0.0018642127630554668,0.0031957933080950856,0.9655325976969097,-0.005475491059289595,0.2516063957537266,0.06641568638609631,26.25
4.295,-4.76143391025641,0.2352877564102564,8.523343878205129,0.00346210941710301,0.0,0.0023968449810713144,0.9654139532922148,-0.005011413992202141,0.2520393997980659,0.06653514460739292,26.25
4.315,-4.746167147435897,0.24606429487179488,8.554775448717947,0.00346210941710301,-0.0018642127630554668,0.0023968449810713144,0.965546382837519,-0.004682430272160443,0.2515125164985524,0.06663115998311239,26.25
4.336,-4.75963782051282,0.24247211538461536,8.532324326923076,0.00346210941710301,-0.0018642127630554668,0.0018642127630554668,0.9654268647426446,-0.004973316277189634,0.25198719404436776,0.06654839589382186,26.25
4.356,-4.756045641025641,0.21553076923076925,8.531426282051282,0.0031957933080950856,-0.0005326322180158477,0.0021305288720633907,0.9655171796955899,-0.005467442584828153,0.2516627480363625,0.06642698273323878,26.25
4.376,-4.756045641025641,0.22002099358974359,8.537712596153845,0.0031957933080950856,-0.0007989483270237714,0.0015978966540475428,0.9656097680923009,-0.005958096513666221,0.2513291819717581,0.06630172803233449,26.25
4.396,-4.778496762820512,0.21822490384615384,8.54040673076923,0.0031957933080950856,-0.0010652644360316954,0.0018642127630554668,0.965474315712933,-0.005635714933043146,0.25183582011654104,0.06637999790649651,26.25
4.417,-4.771312403846154,0.2388799358974359,8.54399891025641,0.0037284255261109335,-0.00026631610900792384,0.0018642127630554668,0.9655492787406122,-0.0050625665179067775,0.2515206021325133,0.06653080073645068,26.25
4.437,-4.748861282051282,0.20565227564102562,8.511669294871794,0.003994741635118857,0.0015978966540475428,0.0021305288720633907,0.9654774497250089,-0.005574215833925239,0.25182156432289377,0.06639368894933113,26.25
4.457,-4.781190897435897,0.24426820512820513,8.526936057692307,0.0037284255261109335,0.0018642127630554668,0.0023968449810713144,0.9653502949329567,-0.0051290844662899605,0.25228815537341776,0.06650704642118525,26.25
4.477,-4.76323,0.22720535256410257,8.543100865384615,0.0037284255261109335,-0.0005326322180158477,0.0018642127630554668,0.9654961629292399,-0.005271203918821878,0.2517349041531337,0.06647489608245674,26.25
4.497,-4.765026089743589,0.24426820512820513,8.54220282051282,0.0037284255261109335,-0.0010652644360316954,0.002663161090079238,0.9654541920410141,-0.004606391656617774,0.2518623020644936,0.06665106919706756,26.25
4.518,-4.747065192307692,0.22810339743589741,8.54040673076923,0.00346210941710301,-0.00026631610900792384,0.002663161090079238,0.9655783246747742,-0.004946731794974239,0.25139962487738976,0.06657520089577326,26.25
4.538,-4.770414358974358,0.23259362179487178,8.54040673076923,0.00346210941710301,0.0005326322180158477,0.0023968449810713144,0.9654291629539793,-0.00499882034544038,0.25197516611570037,0.06655868669150763,26.25
4.558,-4.79825375,0.22361317307692305,8.516159519230769,0.002929477199087162,-0.00026631610900792384,0.0023968449810713144,0.9652871013567736,-0.005140071825178467,0.252525751529177,0.06652169894473688,26.25
4.578,-4.765924134615385,0.2550447435897436,8.53681455128205,0.002929477199087162,-0.001331580545039619,0.002663161090079238,0.9653350450366229,-0.004509529017684803,0.25230800308588053,0.06669772523103891,26.25
4.598,-4.755147596153845,0.20834641025641026,8.528732147435898,0.0021305288720633907,-0.00026631610900792384,0.002663161090079238,0.9653968838847147,-0.005076625011080547,0.25209531659773626,0.06656602597171338,26.25
4.619,-4.779394807692308,0.22002099358974359,8.520649743589743,0.0023968449810713144,0.001331580545039619,0.002929477199087162,0.9652724316693855,-0.005403135327024619,0.25258481690579404,0.0664894657549304,26.25
4.639,-4.764128044871795,0.23349166666666665,8.55118326923077,0.002929477199087162,-0.00026631610900792384,0.002663161090079238,0.9654088537052323,-0.005147850090288772,0.25204649463107454,0.06657183617104902,26.25
4.659,-4.7587397756410255,0.2406760256410256,8.535018461538462,0.002929477199087162,-0.001331580545039619,0.002929477199087162,0.9654745991556566,-0.004551740323673189,0.25176100777721805,0.06674185349726053,26.25
4.679,-4.7587397756410255,0.22540926282051282,8.523343878205129,0.002663161090079238,-0.00026631610900792384,0.002929477199087162,0.9654313320330316,-0.005119550761190496,0.251952272267712,0.06660469824319235,26.25
4.699,-4.772210448717948,0.24247211538461536,8.513465384615385,0.002929477199087162,0.0,0.0031957933080950856,0.9652904982563913,-0.004810022675222095,0.25247417571079694,0.06669264020074085,26.25
4.720,-4.765026089743589,0.24337016025641023,8.54399891025641,0.003994741635118857,0.0,0.002663161090079238,0.9654244652228704,-0.0045289836734237685,0.2519443809416611,0.06677663639285764,26.25
4.740,-4.769516314102564,0.2613310576923077,8.54220282051282,0.004527373853134705,0.0007989483270237714,0.002663161090079238,0.9653731630525948,-0.003862311451482095,0.25210619460379463,0.06694927371132245,26.25
4.761,-4.765924134615385,0.22271512820512818,8.554775448717947,0.0031957933080950856,0.0005326322180158477,0.0031957933080950856,0.9654270765446807,-0.004427828713908145,0.2519253338213424,0.06681751556498328,26.25
4.781,-4.777598717948718,0.24337016025641023,8.529630192307692,0.0023968449810713144,0.0005326322180158477,0.0023968449810713144,0.9652787403714953,-0.004510976524407466,0.2524968239080703,0.06679789213704777,26.25
4.801,-4.786579166666666,0.2218170833333333,8.55118326923077,0.002929477199087162,0.00026631610900792384,0.0031957933080950856,0.9652768714041272,-0.005112447335344623,0.2525303379259801,0.06665472857565131,26.25
4.821,-4.782986987179487,0.23708384615384615,8.530528237179487,0.0031957933080950856,0.0010652644360316954,0.003994741635118857,0.9651298092308832,-0.004829698761763174,0.25307445724907424,0.06674162443270418,26.25
4.842,-4.756045641025641,0.21822490384615384,8.525139967948718,0.0031957933080950856,0.0010652644360316954,0.0037284255261109335,0.9652526732696748,-0.005155419657539637,0.2526152274661108,0.06668017131161506,26.25
4.862,-4.771312403846154,0.22540926282051282,8.520649743589743,0.0031957933080950856,0.00026631610900792384,0.002929477199087162,0.9652446035664349,-0.005753033969502916,0.25267172381283076,0.06653388513738033,26.25
4.882,-4.7605358653846155,0.23259362179487178,8.529630192307692,0.0031957933080950856,0.0005326322180158477,0.002663161090079238,0.9653490980754436,-0.005297509113532718,0.2522473468117118,0.06666581784221734,26.25
4.903,-4.786579166666666,0.20834641025641026,8.54040673076923,0.00346210941710301,0.0010652644360316954,0.002663161090079238,0.965280610246935,-0.005813593089275297,0.25253388794045073,0.06652955026435185,26.25
4.923,-4.76323,0.23798189102564102,8.526038012820512,0.004261057744126781,0.0007989483270237714,0.0021305288720633907,0.9651910967065113,-0.005220666337136388,0.25285051090249366,0.06667466248753191,26.25
4.943,-4.774904583333333,0.2263073076923077,8.535018461538462,0.004261057744126781,0.0018642127630554668,0.0018642127630554668,0.9653343007567089,-0.005312501979398105,0.252305916896086,0.06665725320248476,26.25
4.963,-4.773108493589743,0.2263073076923077,8.53322237179487,0.0023968449810713144,0.0005326322180158477,0.0018642127630554668,0.9652333330319456,-0.005732873592725102,0.25271106352369477,0.06654972078930353,26.25
4.983,-4.757841730769231,0.2388799358974359,8.545795,0.002663161090079238,-0.0010652644360316954,0.0021305288720633907,0.9653824706961497,-0.005838457129286968,0.2521430458916352,0.06653181268713436,26.25
5.004,-4.776700673076923,0.23349166666666665,8.531426282051282,0.0031957933080950856,-0.001331580545039619,0.0015978966540475428,0.9653227237314799,-0.0052086213491597646,0.2523439836703715,0.06668900371609468,26.25
5.024,-4.771312403846154,0.20385618589743587,8.528732147435898,0.0031957933080950856,-0.0010652644360316954,0.0015978966540475428,0.9652761684671456,-0.0057652133893624944,0.2525484079419487,0.06654308792015247,26.25
5.044,-4.767720224358974,0.2343897115384615,8.549387179487178,0.00346210941710301,0.00026631610900792384,0.0023968449810713144,0.9653767400962274,-0.005292690514939793,0.2521390682606777,0.06667553798006792,26.25
5.064,-4.785681121794871,0.21553076923076925,8.54040673076923,0.00346210941710301,0.00026631610900792384,0.0021305288720633907,0.96527909199442,-0.005715532283238871,0.25253395181721394,0.06655982593673465,26.25
5.084,-4.774006538461538,0.22810339743589741,8.530528237179487,0.0037284255261109335,-0.0005326322180158477,0.0021305288720633907,0.965273131223245,-0.005032580100878797,0.25252385404222594,0.06673948168558891,26.375
5.104,-4.782088942307692,0.23349166666666665,8.539508685897436,0.0037284255261109335,0.0010652644360316954,0.002929477199087162,0.965134762544581,-0.005262938538742307,0.25306330799637267,0.06667948524010783,26.375
5.125,-4.765026089743589,0.24875842948717947,8.520649743589743,0.002929477199087162,0.0018642127630554668,0.0023968449810713144,0.965211905820547,-0.004716777283819689,0.2527393466730706,0.06683226404658175,26.375
5.145,-4.771312403846154,0.22002099358974359,8.565551987179486,0.0023968449810713144,0.00026631610900792384,0.0021305288720633907,0.9653356623868519,-0.005074988201085822,0.25228058606304593,0.06675184877277122,26.375
5.165,-4.765026089743589,0.2343897115384615,8.552081314102564,0.002929477199087162,-0.0010652644360316954,0.0018642127630554668,0.9654851491951065,-0.004982556022375722,0.2517009209757077,0.06678508216037125,26.375
5.185,-4.757841730769231,0.24606429487179488,8.528732147435898,0.00346210941710301,-0.001331580545039619,0.0018642127630554668,0.9654182610992595,-0.00436053527291938,0.2519270138891324,0.06694286026993909,26.375
5.205,-4.787477211538461,0.24516625,8.518853653846154,0.0031957933080950856,-0.0010652644360316954,0.002663161090079238,0.9652721112480058,-0.004399718039596466,0.25248842569483554,0.06693271709809002,26.375
5.225,-4.770414358974358,0.20475423076923074,8.520649743589743,0.0023968449810713144,-0.0015978966540475428,0.0031957933080950856,0.9652785967932067,-0.005005737829488241,0.2524898711586923,0.06679100331621987,26.375
5.246,-4.785681121794871,0.24426820512820513,8.55118326923077,0.002663161090079238,-0.0021305288720633907,0.0031957933080950856,0.9652382013566763,-0.004349666260437663,0.252607605423476,0.0669753143133273,26.375
5.266,-4.751555416666666,0.24426820512820513,8.545795,0.0031957933080950856,-0.0007989483270237714,0.002663161090079238,0.9653882533401718,-0.004370239651833802,0.2520304993820928,0.06698543647249647,26.375
5.287,-4.76143391025641,0.23798189102564102,8.543100865384615,0.00346210941710301,0.00026631610900792384,0.0023968449810713144,0.9654834277997464,-0.004840225383352462,0.25168720757429536,0.06687205997831952,26.375
5.307,-4.765026089743589,0.2316955769230769,8.515261474358974,0.002929477199087162,-0.00026631610900792384,0.002929477199087162,0.965344717815564,-0.005019820439430604,0.25222634389949933,0.0668299979906972,26.375
5.327,-4.776700673076923,0.2191229487179487,8.529630192307692,0.002929477199087162,-0.0005326322180158477,0.002663161090079238,0.9652780442130491,-0.0055395173029475385,0.2525048437028096,0.06670018751773535,26.375
5.348,-4.769516314102564,0.23079753205128203,8.535018461538462,0.002929477199087162,0.0,0.002663161090079238,0.9653744925027721,-0.005046928640409348,0.2521084545813265,0.0668426874454433,26.375
5.368,-4.765924134615385,0.21732685897435897,8.562857852564102,0.0037284255261109335,-0.00026631610900792384,0.002929477199087162,0.9654852695450137,-0.005454278339657605,0.251700133948926,0.06674943976902456,26.375
5.388,-4.767720224358974,0.24157407051282048,8.532324326923076,0.0037284255261109335,0.0007989483270237714,0.0023968449810713144,0.9653813518379198,-0.0049155954977213685,0.25207279870693605,0.06688786583937051,26.375
5.409,-4.774904583333333,0.2191229487179487,8.531426282051282,0.0037284255261109335,0.0021305288720633907,0.0021305288720633907,0.96531100777345,-0.005436650800010727,0.25236801772405837,0.06674941744700497,26.375
5.429,-4.748861282051282,0.2505545192307692,8.54220282051282,0.00346210941710301,0.0010652644360316954,0.002663161090079238,0.9654070639237411,-0.004949128964459403,0.2519735817925908,0.06688812396268534,26.375
5.449,-4.773108493589743,0.2343897115384615,8.54220282051282,0.0031957933080950856,0.00026631610900792384,0.0031957933080950856,0.9652696377117848,-0.005154032871655179,0.2525079877023811,0.0668406957131051,26.375
5.470,-4.747065192307692,0.23079753205128203,8.522445833333332,0.0031957933080950856,0.00026631610900792384,0.002663161090079238,0.9654169180255551,-0.005125915810702055,0.2519389085052664,0.0668631868692736,26.375
5.490,-4.7605358653846155,0.24247211538461536,8.523343878205129,0.0031957933080950856,-0.0015978966540475428,0.0023968449810713144,0.9655124166752357,-0.005610376628439206,0.2515932743389875,0.06674669450557133,26.375
5.510,-4.774904583333333,0.23079753205128203,8.53861064102564,0.002663161090079238,-0.0018642127630554668,0.0023968449810713144,0.9654228639666512,-0.005054575857397339,0.25190912167059804,0.06689498794736973,26.375
5.530,-4.746167147435897,0.2352877564102564,8.544896955128205,0.0023968449810713144,-0.0010652644360316954,0.0018642127630554668,0.9652748730812741,-0.004961597390857082,0.2524717646719718,0.06691644037665079,26.375
5.550,-4.773108493589743,0.2406760256410256,8.53861064102564,0.00346210941710301,0.0007989483270237714,0.0021305288720633907,0.9653581832694407,-0.00442552018694201,0.25212417810603777,0.06706259449316647,26.375
5.571,-4.752453461538461,0.22091903846153846,8.523343878205129,0.0037284255261109335,0.00026631610900792384,0.0021305288720633907,0.9652747315689609,-0.004898016394966852,0.25246849947637023,0.06693548238427262,26.375
5.591,-4.7587397756410255,0.24516625,8.529630192307692,0.0037284255261109335,-0.001331580545039619,0.0021305288720633907,0.9652606772673145,-0.005485479256367167,0.25255095818342266,0.06678134439653392,26.375
5.611,-4.778496762820512,0.21732685897435897,8.537712596153845,0.00346210941710301,-0.0010652644360316954,0.0021305288720633907,0.9651248288175046,-0.0056691829380439126,0.2530795322466153,0.06672837119720552,26.375
5.631,-4.7587397756410255,0.24157407051282048,8.520649743589743,0.002929477199087162,-0.00026631610900792384,0.002929477199087162,0.9652264772727288,-0.005194115363671956,0.2526645875496169,0.0668690880426033,26.375
5.652,-4.752453461538461,0.24426820512820513,8.546693044871795,0.004261057744126781,0.00026631610900792384,0.002929477199087162,0.9653579607912774,-0.004893672742971901,0.25214390605487697,0.066959018387224,26.375
5.672,-4.785681121794871,0.23798189102564102,8.534120416666667,0.003994741635118857,-0.0005326322180158477,0.0021305288720633907,0.9652093099237712,-0.004886424715821422,0.25271422701013746,0.06695244847384546,26.375
5.692,-4.756943685897435,0.2406760256410256,8.527834102564102,0.003994741635118857,-0.0015978966540475428,0.0015978966540475428,0.9653580424291434,-0.004729463777840297,0.25213723384529135,0.06699475650072405,26.375
5.712,-4.751555416666666,0.24157407051282048,8.523343878205129,0.00346210941710301,-0.0010652644360316954,0.0015978966540475428,0.9655054136484396,-0.004583586814570783,0.25156377293233434,0.06703696812593747,26.375
5.733,-4.749759326923076,0.24157407051282048,8.54759108974359,0.0031957933080950856,0.0005326322180158477,0.0015978966540475428,0.9656521676664106,-0.004623554735424504,0.25100029802460716,0.06703256085164462,26.375
5.753,-4.752453461538461,0.24875842948717947,8.548489134615384,0.002663161090079238,-0.0010652644360316954,0.0018642127630554668,0.9655555442225626,-0.004086478133909024,0.2513442670745796,0.06717031432317777,26.375
5.773,-4.746167147435897,0.23349166666666665,8.541304775641025,0.0037284255261109335,0.0005326322180158477,0.002663161090079238,0.9656277058614575,-0.004975341283185861,0.25110970314591136,0.06694995621975232,26.375
5.794,-4.746167147435897,0.23349166666666665,8.541304775641025,0.0037284255261109335,0.0005326322180158477,0.002663161090079238,0.9656277058614575,-0.004975341283185861,0.25110970314591136,0.06694995621975232,26.375
5.814,-4.753351506410256,0.2352877564102564,8.535018461538462,0.0031957933080950856,0.00026631610900792384,0.0021305288720633907,0.9654766923313943,-0.004936083543197511,0.2516888795141874,0.06695595248353572,26.375
5.834,-4.768618269230769,0.22720535256410257,8.535018461538462,0.00346210941710301,-0.002929477199087162,0.002663161090079238,0.9652573020709005,-0.005595551123170706,0.25256089758956274,0.06678340823279809,26.375
5.854,-4.7892733012820505,0.20385618589743587,8.543100865384615,0.004261057744126781,-0.0018642127630554668,0.0023968449810713144,0.9652307066274474,-0.006164692609094098,0.252688969583097,0.0666330563575384,26.375
5.875,-4.765026089743589,0.2388799358974359,8.51077125,0.003994741635118857,0.00026631610900792384,0.0018642127630554668,0.9652262146249192,-0.0054835090039352,0.25267572218872625,0.06680767280978264,26.375
5.895,-4.765026089743589,0.2388799358974359,8.51077125,0.003994741635118857,0.00026631610900792384,0.0018642127630554668,0.9652262146249192,-0.0054835090039352,0.25267572218872625,0.06680767280978264,26.375
5.915,-4.734492564102564,0.21822490384615384,8.523343878205129,0.0023968449810713144,-0.00026631610900792384,0.0015978966540475428,0.9653751590579743,-0.005548828824389373,0.25210669706628897,0.06679989570946178,26.375
5.935,-4.765924134615385,0.22361317307692305,8.53322237179487,0.0031957933080950856,-0.0005326322180158477,0.0021305288720633907,0.9653673833192449,-0.005495752624969525,0.25213069291276974,0.06682608486037477,26.375
5.956,-4.771312403846154,0.21193858974358973,8.543100865384615,0.0031957933080950856,-0.0010652644360316954,0.0015978966540475428,0.9653947670843283,-0.00609453418078524,0.25205359987577486,0.06666920675227653,26.375
5.976,-4.762331955128205,0.23977798076923076,8.552979358974358,0.0031957933080950856,0.0010652644360316954,0.002663161090079238,0.9654449859914471,-0.005476911167239758,0.2518299091941915,0.06684070094849369,26.375
5.996,-4.762331955128205,0.23977798076923076,8.552979358974358,0.0031957933080950856,0.0010652644360316954,0.002663161090079238,0.9654449859914471,-0.005476911167239758,0.2518299091941915,0.06684070094849369,26.375
6.016,-4.769516314102564,0.2352877564102564,8.531426282051282,0.002929477199087162,0.00026631610900792384,0.00346210941710301,0.9653677268070916,-0.004966197693507898,0.25209400104343266,0.06700077281413555,26.375
6.036,-4.765026089743589,0.24965647435897434,8.528732147435898,0.0023968449810713144,-0.0015978966540475428,0.0023968449810713144,0.9653234954209233,-0.004318298029305969,0.2522284383389556,0.0671767547858069,26.375
6.057,-4.785681121794871,0.22091903846153846,8.53861064102564,0.002929477199087162,-0.001331580545039619,0.0018642127630554668,0.9651900574307924,-0.004532666791111893,0.2527517553447612,0.06711302510426895,26.375
6.077,-4.784783076923077,0.23259362179487178,8.526038012820512,0.003994741635118857,-0.00026631610900792384,0.0018642127630554668,0.9650496376326716,-0.004687710653242633,0.2532964945897777,0.0670679364705014,26.375
6.097,-4.784783076923077,0.23259362179487178,8.526038012820512,0.003994741635118857,-0.00026631610900792384,0.0018642127630554668,0.9650496376326716,-0.004687710653242633,0.2532964945897777,0.0670679364705014,26.375
6.117,-4.75963782051282,0.22720535256410257,8.524241923076923,0.0021305288720633907,0.0,0.002663161090079238,0.9653265512249349,-0.00500615822932216,0.2522446974675242,0.0670238799195727,26.375
6.137,-4.7452691025641025,0.23798189102564102,8.53681455128205,0.0018642127630554668,-0.0007989483270237714,0.002663161090079238,0.9652115921238704,-0.004547362784246876,0.2526588011978103,0.06715232012892149,26.375
6.157,-4.754249551282051,0.22810339743589741,8.526038012820512,0.0018642127630554668,-0.0010652644360316954,0.002663161090079238,0.9653362458605227,-0.0049121583922508705,0.25219476256664025,0.0670790940740702,26.375
6.177,-4.76143391025641,0.2352877564102564,8.54399891025641,0.001331580545039619,-0.0005326322180158477,0.0023968449810713144,0.9654838686524221,-0.005022008472158339,0.2516294953927418,0.06706918704779706,26.375
6.197,-4.766822179487179,0.26222910256410253,8.527834102564102,0.001331580545039619,0.00026631610900792384,0.0018642127630554668,0.9653925595660503,-0.004459027726531532,0.251949368196324,0.06722230933043881,26.375
6.218,-4.782088942307692,0.22810339743589741,8.537712596153845,0.002929477199087162,0.0,0.002929477199087162,0.9653029565235347,-0.004906908054011986,0.25231410167237583,0.06710974949688235,26.375
6.238,-4.782088942307692,0.22810339743589741,8.537712596153845,0.002929477199087162,0.0,0.002929477199087162,0.9653029565235347,-0.004906908054011986,0.25231410167237583,0.06710974949688235,26.375
6.258,-4.775802628205128,0.22451121794871792,8.526936057692307,0.002929477199087162,-0.001331580545039619,0.0021305288720633907,0.9653305732029565,-0.004929386717503195,0.2522073056170301,0.06711229827415267,26.375
6.278,-4.753351506410256,0.23798189102564102,8.532324326923076,0.0031957933080950856,-0.0010652644360316954,0.0023968449810713144,0.9654778584984645,-0.004841917770022331,0.2516348018171961,0.06714899177164033,26.375
6.299,-4.7587397756410255,0.21822490384615384,8.537712596153845,0.0031957933080950856,-0.00026631610900792384,0.002663161090079238,0.9654813479972195,-0.005448163541084048,0.2516488855080653,0.06699942243072173,26.375
6.319,-4.774904583333333,0.23977798076923076,8.524241923076923,0.002663161090079238,-0.0007989483270237714,0.002663161090079238,0.9653429365356404,-0.00514310869897914,0.25216358627565955,0.06708270321219234,26.375
6.339,-4.740778878205128,0.2316955769230769,8.526936057692307,0.0031957933080950856,-0.0005326322180158477,0.0023968449810713144,0.9654922324923484,-0.005115276021327882,0.2515865936543778,0.06710267387782506,26.375
6.359,-4.740778878205128,0.2316955769230769,8.526936057692307,0.0031957933080950856,-0.0005326322180158477,0.0023968449810713144,0.9654922324923484,-0.005115276021327882,0.2515865936543778,0.06710267387782506,26.375
6.380,-4.773108493589743,0.24157407051282048,8.54759108974359,0.003994741635118857,0.001331580545039619,0.0021305288720633907,0.9654846217761022,-0.0050455448695930485,0.2516134732901797,0.0671166719204557,26.375
6.400,-4.773108493589743,0.24157407051282048,8.54759108974359,0.003994741635118857,0.001331580545039619,0.0021305288720633907,0.9654846217761022,-0.0050455448695930485,0.2516134732901797,0.0671166719204557,26.375
6.420,-4.757841730769231,0.21553076923076925,8.521547788461538,0.002663161090079238,0.0,0.0023968449810713144,0.9654060149957728,-0.005948395136788779,0.25195463672405866,0.0668932271498837,26.375
6.441,-4.774006538461538,0.22989948717948716,8.535916506410256,0.0037284255261109335,0.0005326322180158477,0.002663161090079238,0.9653008930413776,-0.005415506441164359,0.2523320659720384,0.06703272831824564,26.375
6.461,-4.769516314102564,0.22989948717948716,8.524241923076923,0.0037284255261109335,0.0007989483270237714,0.0031957933080950856,0.9651538365074546,-0.005146654895057599,0.25288011881069494,0.06710610500261378,26.375
6.481,-4.767720224358974,0.2343897115384615,8.522445833333332,0.002663161090079238,-0.0007989483270237714,0.002929477199087162,0.9653030893929422,-0.0050834144577720205,0.25230131880436696,0.06714275117590404,26.375
6.501,-4.755147596153845,0.21014249999999998,8.526038012820512,0.002929477199087162,-0.0010652644360316954,0.0015978966540475428,0.9653787978040625,-0.005623040880567866,0.2520366913499998,0.06700495783883029,26.375
6.522,-4.7892733012820505,0.2532486538461538,8.532324326923076,0.0037284255261109335,-0.0010652644360316954,0.001331580545039619,0.9652709236340685,-0.005122684623653031,0.2524287185564035,0.06712335016110886,26.375
6.542,-4.770414358974358,0.22361317307692305,8.528732147435898,0.00346210941710301,-0.0005326322180158477,0.0021305288720633907,0.9652880363326711,-0.005721122435998315,0.2523912960853187,0.06696946566504108,26.375
6.563,-4.770414358974358,0.22361317307692305,8.528732147435898,0.00346210941710301,-0.0005326322180158477,0.0021305288720633907,0.9652880363326711,-0.005721122435998315,0.2523912960853187,0.06696946566504108,26.375
6.583,-4.754249551282051,0.2164288141025641,8.526936057692307,0.0023968449810713144,-0.001331580545039619,0.0023968449810713144,0.9654640194731002,-0.0059141440831424474,0.2517196605656789,0.06694372627295561,26.375
6.603,-4.783885032051281,0.24516625,8.53861064102564,0.002929477199087162,-0.0010652644360316954,0.0023968449810713144,0.9653563160667069,-0.005415796139466877,0.25210863841350534,0.06707523104381065,26.375
6.623,-4.7605358653846155,0.2263073076923077,8.526038012820512,0.0031957933080950856,-0.0005326322180158477,0.0023968449810713144,0.9654528707918353,-0.005888720654312776,0.2517581874686614,0.06696187192241365,26.375
6.643,-4.770414358974358,0.24516625,8.531426282051282,0.002929477199087162,0.0005326322180158477,0.0021305288720633907,0.9653637646011491,-0.005314184622844354,0.2520724791760841,0.06711204570651995,26.375
6.663,-4.773108493589743,0.20116205128205128,8.53322237179487,0.0037284255261109335,0.0007989483270237714,0.0023968449810713144,0.9652568611681569,-0.005708089239593354,0.25250079283840576,0.06700715858031081,26.375
6.684,-4.774006538461538,0.2388799358974359,8.543100865384615,0.004261057744126781,-0.00026631610900792384,0.0015978966540475428,0.9652985100412652,-0.005060913072708129,0.25231175829053953,0.0671710525399173,26.375
6.704,-4.791967435897435,0.23079753205128203,8.519751698717949,0.0031957933080950856,-0.0005326322180158477,0.001331580545039619,0.9651537941740714,-0.005145622751119897,0.25287195904177295,0.06713753412416434,26.375
6.724,-4.767720224358974,0.2218170833333333,8.518853653846154,0.002929477199087162,-0.0010652644360316954,0.001331580545039619,0.9652332434160713,-0.005678134281684523,0.2525939035677537,0.06699898861904421,26.375
6.744,-4.76143391025641,0.2263073076923077,8.516159519230769,0.00346210941710301,-0.0015978966540475428,0.0021305288720633907,0.9653631845914928,-0.00533246750651701,0.25207837487280016,0.06709679237602487,26.375
6.765,-4.782088942307692,0.23259362179487178,8.54399891025641,0.00346210941710301,-0.0007989483270237714,0.002663161090079238,0.9652143031502594,-0.005203842285462937,0.25264182743573776,0.06712954677009399,26.375
6.785,-4.782088942307692,0.23259362179487178,8.54399891025641,0.00346210941710301,-0.0007989483270237714,0.002663161090079238,0.9652143031502594,-0.005203842285462937,0.25264182743573776,0.06712954677009399,26.375
6.805,-4.774006538461538,0.24247211538461536,8.548489134615384,0.0031957933080950856,-0.0007989483270237714,0.0015978966540475428,0.9652140937886923,-0.005128347065985706,0.25263799860934927,0.06715277259136053,26.375
6.825,-4.792865480769231,0.24426820512820513,8.54759108974359,0.002929477199087162,-0.0005326322180158477,0.001331580545039619,0.9651074094073139,-0.004623476155548894,0.25302207150917966,0.06727661632800945,26.375
6.846,-4.779394807692308,0.24516625,8.541304775641025,0.002929477199087162,0.00026631610900792384,0.0018642127630554668,0.965255433477551,-0.004601336248633458,0.2524530679832119,0.06729208209481868,26.375
6.866,-4.762331955128205,0.21463272435897432,8.555673493589744,0.002929477199087162,0.00026631610900792384,0.002663161090079238,0.9653542615640517,-0.005062443803935391,0.2520943536765417,0.06718599695817108,26.375
6.886,-4.7605358653846155,0.24247211538461536,8.545795,0.002663161090079238,0.00026631610900792384,0.0023968449810713144,0.9654705132190092,-0.004671788252689714,0.25162533965276235,0.06730193863312595,26.375
6.907,-4.781190897435897,0.19487573717948717,8.520649743589743,0.0031957933080950856,-0.0005326322180158477,0.002929477199087162,0.9653998926482197,-0.005178358579522083,0.25191968289642014,0.06717667189281656,26.375
6.927,-4.782986987179487,0.2263073076923077,8.53322237179487,0.0037284255261109335,-0.0007989483270237714,0.0023968449810713144,0.9652648383746827,-0.005371468616137152,0.2524470751692146,0.06712237600765265,26.375
6.947,-4.739880833333333,0.24337016025641023,8.53322237179487,0.004261057744126781,0.00026631610900792384,0.0021305288720633907,0.965393312995703,-0.005044351002483312,0.25193824420183136,0.06721180591713713,26.375
6.968,-4.774904583333333,0.21553076923076925,8.54759108974359,0.0031957933080950856,0.0010652644360316954,0.002663161090079238,0.9653696451016909,-0.0056349201542762566,0.2520555468250828,0.06706487385956192,26.375
6.988,-4.780292852564102,0.23079753205128203,8.555673493589744,0.0023968449810713144,0.0007989483270237714,0.002929477199087162,0.9652874550133254,-0.0050422076066393585,0.2523386865156412,0.0672301466896356,26.375
7.008,-4.7587397756410255,0.24516625,8.523343878205129,0.0021305288720633907,0.0,0.002663161090079238,0.9653549624002912,-0.004467498897908099,0.2520466229871501,0.06739686835085971,26.375
7.029,-4.769516314102564,0.22451121794871792,8.546693044871795,0.0021305288720633907,-0.0005326322180158477,0.002663161090079238,0.96537962915355,-0.0050748345383853375,0.2519790976691514,0.06725289590495326,26.375
7.049,-4.788375256410256,0.23259362179487178,8.535916506410256,0.0023968449810713144,-0.00026631610900792384,0.0021305288720633907,0.9652340489779766,-0.0051694188438086855,0.2525408632923178,0.06722812038105289,26.375
7.069,-4.749759326923076,0.23349166666666665,8.518853653846154,0.00346210941710301,0.00026631610900792384,0.0021305288720633907,0.9653812359667467,-0.00511043484100308,0.25197230888228117,0.06725257062436067,26.375
7.089,-4.784783076923077,0.2604330128205128,8.54399891025641,0.003994741635118857,0.00026631610900792384,0.002929477199087162,0.9652831337727537,-0.004549773022077093,0.2523191827625248,0.06740030585502912,26.375
7.109,-4.7892733012820505,0.2478603846153846,8.549387179487178,0.0037284255261109335,0.0,0.0023968449810713144,0.9651321312045561,-0.004510613905086282,0.2528954655626922,0.06740554262506986,26.375
7.129,-4.793763525641025,0.2263073076923077,8.530528237179487,0.00346210941710301,0.00026631610900792384,0.002663161090079238,0.9650742760991845,-0.005048411006160606,0.25314250165367264,0.06726833589786833,26.375
7.150,-4.771312403846154,0.22540926282051282,8.51256733974359,0.0031957933080950856,0.0005326322180158477,0.002663161090079238,0.9651555201500687,-0.005559765724513136,0.2528542632763236,0.06714635114380074,26.375
7.170,-4.733594519230769,0.2290014423076923,8.543100865384615,0.0023968449810713144,0.0,0.0021305288720633907,0.9653023213058131,-0.005469792766749896,0.2522852036338533,0.06718397038076036,26.375
7.190,-4.784783076923077,0.21822490384615384,8.537712596153845,0.0021305288720633907,-0.0005326322180158477,0.0021305288720633907,0.9652009107144972,-0.0058880340881182795,0.2526915882132117,0.0670782696315823,26.375
7.211,-4.785681121794871,0.22989948717948716,8.50717907051282,0.002663161090079238,-0.0010652644360316954,0.0018642127630554668,0.9651759925876611,-0.005218790834512317,0.25275579689705074,0.06725009062882861,26.375
7.231,-4.7587397756410255,0.20834641025641026,8.546693044871795,0.00346210941710301,-0.0007989483270237714,0.0018642127630554668,0.9653046495835451,-0.005536512061765926,0.252277888440144,0.06717252065213493,26.375
7.252,-4.765924134615385,0.28108804487179484,8.509873205128205,0.00346210941710301,0.00026631610900792384,0.0023968449810713144,0.965261481736134,-0.00487565927294889,0.2524084787028546,0.06735324566884429,26.375
7.272,-4.757841730769231,0.24696233974358975,8.541304775641025,0.002929477199087162,-0.001331580545039619,0.00346210941710301,0.9654056299527187,-0.005089813799699139,0.25186074395695074,0.06732183230223368,26.375
7.292,-4.747963237179487,0.22720535256410257,8.54759108974359,0.0023968449810713144,-0.0018642127630554668,0.00346210941710301,0.9655553020409698,-0.005160947770804889,0.2512831762683329,0.0673282158027123,26.375
7.313,-4.750657371794872,0.22810339743589741,8.554775448717947,0.002929477199087162,-0.0005326322180158477,0.0031957933080950856,0.9654091547943066,-0.004903124592452878,0.2518314052110329,0.0673948555752601,26.375
7.333,-4.7416769230769225,0.22810339743589741,8.53681455128205,0.0031957933080950856,0.0010652644360316954,0.0021305288720633907,0.9655416727145413,-0.005161738758682451,0.2513330279022332,0.06733753626387048,26.375
7.353,-4.756943685897435,0.22271512820512818,8.54399891025641,0.0031957933080950856,0.0005326322180158477,0.0021305288720633907,0.9655133297623424,-0.0057450811389040315,0.2514696569829998,0.06718642504847314,26.375
7.374,-4.784783076923077,0.23708384615384615,8.50717907051282,0.0031957933080950856,0.0005326322180158477,0.0018642127630554668,0.9653646089582897,-0.005545623745354348,0.2520318639982985,0.06723360289042087,26.375
7.394,-4.774006538461538,0.22361317307692305,8.51077125,0.002663161090079238,-0.00026631610900792384,0.0018642127630554668,0.9652199792104088,-0.005626318025183465,0.2525903442773637,0.0672075461267593,26.375
7.414,-4.795559615384615,0.20385618589743587,8.526936057692307,0.002929477199087162,-0.0010652644360316954,0.0021305288720633907,0.9651300037018078,-0.006075196281589567,0.25295377371320066,0.06709363836415161,26.375
7.434,-4.777598717948718,0.23079753205128203,8.53322237179487,0.00346210941710301,-0.00026631610900792384,0.002663161090079238,0.9651930014304467,-0.0054735885481814244,0.2526826911956939,0.06726044445431947,26.375
7.455,-4.780292852564102,0.24157407051282048,8.529630192307692,0.0037284255261109335,-0.0007989483270237714,0.002663161090079238,0.9651397263862271,-0.004821640742704913,0.25285331683397166,0.06743337821677056,26.375
7.475,-4.766822179487179,0.24696233974358975,8.543100865384615,0.004261057744126781,-0.00026631610900792384,0.0018642127630554668,0.965281206092398,-0.004606681636288068,0.2523010089831265,0.06749201815921518,26.375
7.496,-4.752453461538461,0.2640251923076923,8.550285224358975,0.004261057744126781,-0.0007989483270237714,0.0015978966540475428,0.965393468196188,-0.004163613558626109,0.2518481980180269,0.06760622043379576,26.375
7.516,-4.770414358974358,0.21822490384615384,8.544896955128205,0.0031957933080950856,-0.0010652644360316954,0.0015978966540475428,0.965390811518888,-0.004764064310613966,0.2518902600569989,0.0674476212669123,26.375
7.536,-4.7605358653846155,0.23798189102564102,8.543100865384615,0.002929477199087162,0.0,0.0023968449810713144,0.9655089264761015,-0.0051426889737616055,0.2514526803370384,0.06736182298902132,26.375
7.556,-4.772210448717948,0.2164288141025641,8.545795,0.002929477199087162,0.0007989483270237714,0.0023968449810713144,0.9654263357127695,-0.005630168188088535,0.25179225062319277,0.06723804015954114,26.375
7.577,-4.721919935897436,0.25863692307692304,8.51795560897436,0.002929477199087162,0.0007989483270237714,0.002929477199087162,0.9655006673167766,-0.005071078618750755,0.25147585773663594,0.06739909901567616,26.375
7.597,-4.749759326923076,0.24337016025641023,8.557469583333333,0.00346210941710301,0.0007989483270237714,0.0031957933080950856,0.9656195591756932,-0.004699931197498009,0.2509955028087375,0.06751322206699892,26.375
7.617,-4.776700673076923,0.25145256410256406,8.519751698717949,0.0037284255261109335,0.0018642127630554668,0.00346210941710301,0.9654639846157494,-0.004564095823054622,0.25158492762921847,0.06755359079278488,26.5
7.638,-4.766822179487179,0.22540926282051282,8.503586891025641,0.0021305288720633907,0.0010652644360316954,0.002929477199087162,0.9653461519831962,-0.004923627528113795,0.25205232845083286,0.0674699078531604,26.5
7.658,-4.782088942307692,0.20565227564102562,8.50538298076923,0.0023968449810713144,0.0010652644360316954,0.002663161090079238,0.9652505785071553,-0.005377039898060899,0.25243843808216304,0.06735906109926526,26.5
7.678,-4.764128044871795,0.2191229487179487,8.543100865384615,0.0023968449810713144,0.00026631610900792384,0.002663161090079238,0.9653733307767837,-0.0057284429585442035,0.25198059340943696,0.06728519682097477,26.5
7.698,-4.768618269230769,0.23618580128205127,8.532324326923076,0.002663161090079238,-0.0007989483270237714,0.0023968449810713144,0.9652968649099303,-0.005130386283287459,0.25224340741096285,0.06744557175494247,26.5
7.718,-4.786579166666666,0.2316955769230769,8.562857852564102,0.00346210941710301,-0.00026631610900792384,0.0023968449810713144,0.9652707938738985,-0.005712808651156265,0.2523704826030869,0.06729634330373592,26.5
7.738,-4.762331955128205,0.23708384615384615,8.54220282051282,0.0037284255261109335,-0.00026631610900792384,0.0023968449810713144,0.9653702661051635,-0.005221773912303933,0.25196409768216527,0.06743200928688675,26.5
7.759,-4.767720224358974,0.22989948717948716,8.518853653846154,0.0031957933080950856,-0.0005326322180158477,0.0021305288720633907,0.9652309649271228,-0.005383058084833456,0.25250607473715736,0.06738612062096995,26.5
7.779,-4.774904583333333,0.26222910256410253,8.552979358974358,0.002663161090079238,-0.001331580545039619,0.0021305288720633907,0.9652646073179935,-0.0047359803179406615,0.2523433057674446,0.06756230002024799,26.5
7.800,-4.765924134615385,0.22271512820512818,8.550285224358975,0.0031957933080950856,0.0,0.002929477199087162,0.9654005341729723,-0.004982272519220806,0.2518306513534704,0.06751524729993134,26.5
7.820,-4.770414358974358,0.22989948717948716,8.531426282051282,0.004527373853134705,0.0023968449810713144,0.002929477199087162,0.9654521710665468,-0.005532801191730044,0.25165773306968925,0.06737862331696338,26.5
7.840,-4.755147596153845,0.19936596153846153,8.543100865384615,0.004261057744126781,0.0015978966540475428,0.002929477199087162,0.9654941190452372,-0.006101237060381128,0.25152123595320514,0.06723800160598595,26.5
7.861,-4.766822179487179,0.27031150641025636,8.528732147435898,0.00346210941710301,0.0,0.00346210941710301,0.965638189503848,-0.006222284777120163,0.2509675613938397,0.06722687908799824,26.5
7.881,-4.76143391025641,0.23349166666666665,8.541304775641025,0.002929477199087162,-0.0005326322180158477,0.0031957933080950856,0.9655501541279708,-0.005647716885382743,0.25127695995053556,0.06738614512977721,26.5
7.901,-4.780292852564102,0.23708384615384615,8.54040673076923,0.0021305288720633907,-0.00026631610900792384,0.0018642127630554668,0.9654026216408547,-0.005473917939604556,0.25183516919296867,0.06743042272523637,26.5
7.921,-4.7605358653846155,0.23259362179487178,8.541304775641025,0.0023968449810713144,0.0,0.0023968449810713144,0.9654868650489263,-0.004944108457912691,0.25148226369858495,0.06758210010489586,26.5
7.941,-4.7416769230769225,0.24516625,8.53861064102564,0.002663161090079238,-0.0007989483270237714,0.0031957933080950856,0.9656081761888268,-0.004570152535272226,0.25099117092297385,0.06770078213585516,26.5
7.962,-4.738982788461538,0.22271512820512818,8.532324326923076,0.0023968449810713144,0.0,0.002929477199087162,0.9656204748321628,-0.00517811060006908,0.2509705243995033,0.06755798722697488,26.5
7.982,-4.785681121794871,0.22810339743589741,8.523343878205129,0.002663161090079238,0.0,0.0023968449810713144,0.9654736217384126,-0.0052539745960988316,0.251538304072934,0.06753934455092493,26.5
8.002,-4.795559615384615,0.22451121794871792,8.545795,0.0021305288720633907,-0.0007989483270237714,0.0015978966540475428,0.965335239159658,-0.005424122260687111,0.25207798904603,0.06749179485520239,26.5
8.022,-4.776700673076923,0.24337016025641023,8.557469583333333,0.0018642127630554668,-0.0018642127630554668,0.0007989483270237714,0.965342498979039,-0.004766222934755066,0.2520180860294564,0.06766111954357422,26.5
8.042,-4.782088942307692,0.21463272435897432,8.513465384615385,0.0023968449810713144,-0.0005326322180158477,0.0015978966540475428,0.9652487185752192,-0.0052102144481106115,0.25239996803106923,0.06754273530304611,26.5
8.062,-4.7416769230769225,0.2505545192307692,8.51256733974359,0.002929477199087162,-0.00026631610900792384,0.0031957933080950856,0.9653466931214947,-0.004722174290972988,0.2519953515328837,0.06768903866342703,26.5
8.082,-4.786579166666666,0.22002099358974359,8.569144166666666,0.00346210941710301,-0.0018642127630554668,0.00346210941710301,0.9653430010842314,-0.005314145915920576,0.25203560222635396,0.06754780026968335,26.5
8.103,-4.773108493589743,0.22271512820512818,8.528732147435898,0.0031957933080950856,-0.0023968449810713144,0.0023968449810713144,0.9652468496315345,-0.005722279464203001,0.252423069112879,0.06744159676168736,26.5
8.123,-4.768618269230769,0.2263073076923077,8.553877403846153,0.002929477199087162,-0.0023968449810713144,0.0023968449810713144,0.9653987750436557,-0.0056100391850430744,0.2518324753807515,0.06748434594892778,26.5
8.143,-4.775802628205128,0.20655032051282052,8.54220282051282,0.0031957933080950856,-0.001331580545039619,0.002663161090079238,0.9653460475349646,-0.0061522912287111185,0.25205829180633804,0.06734816517864517,26.5
8.163,-4.76143391025641,0.2406760256410256,8.546693044871795,0.002663161090079238,0.0010652644360316954,0.0021305288720633907,0.9653879766057967,-0.0055261635808034094,0.25186632367301315,0.06751941306383741,26.5
8.183,-4.733594519230769,0.23349166666666665,8.560163717948717,0.002663161090079238,0.00026631610900792384,0.0015978966540475428,0.9655314584309186,-0.0053805343805839005,0.25130654679490955,0.06756531778997653,26.5
8.204,-4.781190897435897,0.23977798076923076,8.537712596153845,0.002663161090079238,0.0,0.0021305288720633907,0.9653829486996935,-0.005203726270157555,0.2518681777280545,0.06760994483609148,26.5
8.224,-4.762331955128205,0.21373467948717947,8.535916506410256,0.0031957933080950856,-0.00026631610900792384,0.0018642127630554668,0.9653944393489845,-0.0058065337060807356,0.2518527539162516,0.06745406574240104,26.5
8.244,-4.772210448717948,0.24606429487179488,8.529630192307692,0.0037284255261109335,-0.00026631610900792384,0.0023968449810713144,0.9653042110793494,-0.005231213861418421,0.2521711861889776,0.06760256896046937,26.5
8.264,-4.788375256410256,0.22002099358974359,8.524241923076923,0.004261057744126781,0.0007989483270237714,0.0031957933080950856,0.9651797090355041,-0.005530907312148788,0.2526614465996152,0.06752578568690597,26.5
8.284,-4.788375256410256,0.20385618589743587,8.51256733974359,0.004261057744126781,0.00026631610900792384,0.002663161090079238,0.9650969148532227,-0.006001373561308309,0.2529999751042656,0.06740134311280643,26.5
8.304,-4.764128044871795,0.23618580128205127,8.555673493589744,0.0031957933080950856,-0.0005326322180158477,0.0021305288720633907,0.9652257420195165,-0.005668920139637921,0.25249010202079214,0.06749724934287482,26.5
8.324,-4.764128044871795,0.22271512820512818,8.545795,0.0031957933080950856,-0.00026631610900792384,0.0015978966540475428,0.9653744998433686,-0.005733213049940147,0.25192237630413206,0.0674857143221375,26.5
8.345,-4.765924134615385,0.2316955769230769,8.532324326923076,0.003994741635118857,-0.0005326322180158477,0.0015978966540475428,0.9652840935641063,-0.005161180253829694,0.2522436815633069,0.0676247443019072,26.5
8.365,-4.774006538461538,0.22361317307692305,8.541304775641025,0.00346210941710301,-0.0005326322180158477,0.0031957933080950856,0.9652905298542118,-0.005757919372277035,0.25224475642369365,0.06748053197055319,26.5
8.385,-4.792865480769231,0.2352877564102564,8.54040673076923,0.002929477199087162,-0.0018642127630554668,0.002663161090079238,0.9653993770968314,-0.005291120801429234,0.2518020477684009,0.06761490576311285,26.5
8.405,-4.772210448717948,0.2263073076923077,8.544896955128205,0.0031957933080950856,-0.0015978966540475428,0.002663161090079238,0.9654506549524252,-0.0058653356164067695,0.25163067339389517,0.0674732161481513,26.5
8.425,-4.777598717948718,0.2343897115384615,8.526038012820512,0.0031957933080950856,0.00026631610900792384,0.0021305288720633907,0.9653080597824629,-0.0055709905103242235,0.2521642021068924,0.06754649479836397,26.5
8.445,-4.752453461538461,0.22540926282051282,8.537712596153845,0.00346210941710301,0.0005326322180158477,0.0021305288720633907,0.9653382265445335,-0.006163719868906074,0.25207606387352316,0.06739269212061673,26.5
8.465,-4.765026089743589,0.2343897115384615,8.54040673076923,0.00346210941710301,-0.00026631610900792384,0.0018642127630554668,0.9652018883874957,-0.005823125492383765,0.25258315673980036,0.0674770686535045,26.5
8.486,-4.777598717948718,0.2316955769230769,8.562857852564102,0.00346210941710301,0.00026631610900792384,0.0023968449810713144,0.9653240529243704,-0.005470407380083804,0.25209607860651195,0.06758043089521248,26.5
8.506,-4.801845929487179,0.24337016025641023,8.546693044871795,0.004261057744126781,0.0015978966540475428,0.002663161090079238,0.9651755105388775,-0.005191181631163809,0.25265043183590924,0.06765386007034832,26.5
8.526,-4.770414358974358,0.19936596153846153,8.54040673076923,0.0037284255261109335,0.0010652644360316954,0.00346210941710301,0.9652343029641389,-0.005750618400402626,0.2524463235086143,0.06753165566110386,26.5
8.546,-4.772210448717948,0.23977798076923076,8.528732147435898,0.0023968449810713144,-0.001331580545039619,0.0037284255261109335,0.9652101020661502,-0.005086550147022265,0.2525021737559678,0.06772176995298432,26.5
8.566,-4.765026089743589,0.22810339743589741,8.528732147435898,0.0023968449810713144,-0.0007989483270237714,0.0023968449810713144,0.9653036643189068,-0.005568549582609982,0.25216503114865135,0.06760639003701567,26.5
8.586,-4.756943685897435,0.23349166666666665,8.50897516025641,0.00346210941710301,0.001331580545039619,0.0021305288720633907,0.9652118048124276,-0.004983129275783499,0.2524877470508418,0.06775896887163535,26.5
8.607,-4.773108493589743,0.2191229487179487,8.534120416666667,0.003994741635118857,0.0005326322180158477,0.002929477199087162,0.9652375894942191,-0.0055785745399225565,0.2524153348325056,0.06761489536253182,26.5
8.627,-4.7910693910256406,0.22810339743589741,8.534120416666667,0.002663161090079238,0.0,0.002929477199087162,0.9650875526149402,-0.005605628414794298,0.2529881211162517,0.0676136324408713,26.5
8.647,-4.770414358974358,0.20385618589743587,8.515261474358974,0.0031957933080950856,-0.00026631610900792384,0.002929477199087162,0.965137798759887,-0.006178562889423952,0.25281973427760074,0.06747619376746485,26.5
8.667,-4.7452691025641025,0.25953496794871794,8.535018461538462,0.0031957933080950856,-0.0007989483270237714,0.002929477199087162,0.9652233735776787,-0.005636305377207706,0.25246381445754007,0.06763204529340168,26.5
8.687,-4.791967435897435,0.24606429487179488,8.53861064102564,0.0031957933080950856,0.00026631610900792384,0.002929477199087162,0.9651145319597642,-0.005122349400011825,0.2528531691548097,0.06777150275063,26.5
8.707,-4.777598717948718,0.23977798076923076,8.525139967948718,0.0031957933080950856,0.0005326322180158477,0.0018642127630554668,0.9651278676452903,-0.004457457798640186,0.2527677557213686,0.0679469780932961,26.5
8.728,-4.76143391025641,0.21822490384615384,8.557469583333333,0.00346210941710301,0.0,0.0015978966540475428,0.9652404645488283,-0.004865848575496316,0.2523578819239693,0.06784296976143264,26.5
8.748,-4.765924134615385,0.23079753205128203,8.529630192307692,0.002929477199087162,-0.0010652644360316954,0.0018642127630554668,0.9652920242619856,-0.005445760837311717,0.25218825755051166,0.06769589602581341,26.5
8.768,-4.782088942307692,0.22002099358974359,8.528732147435898,0.0018642127630554668,-0.0015978966540475428,0.0023968449810713144,0.9651808630305485,-0.005807821927055879,0.25262887558232106,0.06760785506197774,26.5
8.788,-4.752453461538461,0.2541466987179487,8.548489134615384,0.0018642127630554668,-0.0015978966540475428,0.0021305288720633907,0.9652829479123322,-0.005330976420964301,0.252211794134297,0.06774674943963062,26.5
8.808,-4.774006538461538,0.2316955769230769,8.555673493589744,0.0023968449810713144,0.0,0.001331580545039619,0.9654274789726773,-0.005492239721986231,0.2516639601550519,0.06771166300109231,26.5
8.828,-4.782088942307692,0.2352877564102564,8.53322237179487,0.002663161090079238,0.001331580545039619,0.0018642127630554668,0.9652741255565335,-0.005364028989977803,0.252246292685244,0.06774140204199158,26.5
8.848,-4.755147596153845,0.2290014423076923,8.530528237179487,0.0037284255261109335,0.0010652644360316954,0.0023968449810713144,0.9654170138021338,-0.005477926497759823,0.2517017051557444,0.06772173509550942,26.5
8.869,-4.770414358974358,0.23798189102564102,8.552081314102564,0.0031957933080950856,0.0,0.002929477199087162,0.9653376892528296,-0.004874793109747609,0.25197412885575887,0.06788534810639127,26.5
8.889,-4.7605358653846155,0.22720535256410257,8.535018461538462,0.002929477199087162,-0.0015978966540475428,0.0023968449810713144,0.9653798735499617,-0.005464216324570725,0.25183943044432205,0.06774026393584368,26.5
8.909,-4.770414358974358,0.22810339743589741,8.535018461538462,0.0031957933080950856,-0.001331580545039619,0.0021305288720633907,0.9652420437178459,-0.005618510226892774,0.2523756210809574,0.06769619831443482,26.5
8.930,-4.756943685897435,0.24875842948717947,8.55118326923077,0.003994741635118857,0.0005326322180158477,0.002663161090079238,0.9653417063403364,-0.005135091502463176,0.25196814530494904,0.06783122132744605,26.5
8.950,-4.787477211538461,0.2218170833333333,8.537712596153845,0.0031957933080950856,0.0007989483270237714,0.002663161090079238,0.9651938628101796,-0.005233192524743144,0.25253853356841166,0.06780641527672358,26.5
8.971,-4.76323,0.21373467948717947,8.531426282051282,0.002663161090079238,0.0,0.0021305288720633907,0.9653422801990581,-0.005233911478522755,0.25196711071838135,0.06781934345707907,26.5
8.991,-4.762331955128205,0.2263073076923077,8.554775448717947,0.0031957933080950856,0.0005326322180158477,0.0023968449810713144,0.9651934395612158,-0.005300897035134441,0.2525404108244693,0.06780018893204427,26.5
9.011,-4.765026089743589,0.2191229487179487,8.518853653846154,0.0021305288720633907,-0.0005326322180158477,0.0018642127630554668,0.9650970674100937,-0.004762883622594791,0.252881098752954,0.06794199959916918,26.5
9.031,-4.782986987179487,0.25235060897435896,8.53322237179487,0.0021305288720633907,0.0005326322180158477,0.0018642127630554668,0.9652402229123498,-0.004625846388847376,0.2523233625256091,0.0679914284382544,26.5
9.051,-4.765026089743589,0.24157407051282048,8.543100865384615,0.002929477199087162,0.0010652644360316954,0.0018642127630554668,0.9651339373040074,-0.0050320427214840535,0.2527512153171484,0.06788213878346827,26.5
9.071,-4.750657371794872,0.23079753205128203,8.546693044871795,0.00346210941710301,0.0007989483270237714,0.0021305288720633907,0.9652787955108203,-0.005127040283378954,0.25219971805671765,0.06786650578322762,26.5
9.091,-4.765924134615385,0.22002099358974359,8.54040673076923,0.002663161090079238,-0.0005326322180158477,0.002929477199087162,0.965337858459181,-0.005693369035196811,0.2519969043873707,0.06773451670790662,26.5
9.112,-4.791967435897435,0.19487573717948717,8.523343878205129,0.0021305288720633907,-0.00026631610900792384,0.002929477199087162,0.9652413426197642,-0.006133784709520739,0.25238385833335236,0.06763072700705246,26.5
9.132,-4.751555416666666,0.2505545192307692,8.544896955128205,0.0023968449810713144,-0.0007989483270237714,0.0015978966540475428,0.9653242078306981,-0.00559196042891575,0.2520397288036605,0.0677781591604115,26.5
9.152,-4.76143391025641,0.22720535256410257,8.541304775641025,0.0031957933080950856,-0.002663161090079238,0.0021305288720633907,0.9654787304726716,-0.005637928124372817,0.2514466955601444,0.06777605818596144,26.5
9.172,-4.790171346153846,0.273005641025641,8.54220282051282,0.00346210941710301,-0.0005326322180158477,0.002663161090079238,0.9653761547186299,-0.0051069134595205,0.25181389975348145,0.06791582456639074,26.5
9.192,-4.792865480769231,0.22989948717948716,8.54220282051282,0.002929477199087162,0.0015978966540475428,0.002929477199087162,0.9652330639604446,-0.005291761283573415,0.2523696484618265,0.06787260150682355,26.5
9.212,-4.76323,0.24965647435897434,8.53322237179487,0.0037284255261109335,0.0010652644360316954,0.0031957933080950856,0.965283535732164,-0.004669991769477044,0.25214160059824353,0.06804777784058041,26.5
9.232,-4.776700673076923,0.21732685897435897,8.498198621794872,0.0037284255261109335,0.0010652644360316954,0.002929477199087162,0.965185576881203,-0.005101217297169547,0.2525375143083603,0.06793808673742055,26.5
9.253,-4.765026089743589,0.2550447435897436,8.54759108974359,0.0037284255261109335,0.0005326322180158477,0.0021305288720633907,0.9652822356611818,-0.004608719261390531,0.25214111561752206,0.06807218990800758,26.5
9.273,-4.765924134615385,0.2352877564102564,8.53861064102564,0.003994741635118857,0.0007989483270237714,0.0021305288720633907,0.9653219780540182,-0.005187054002245891,0.2520180307828375,0.06792264215264383,26.5
9.293,-4.790171346153846,0.25145256410256406,8.526936057692307,0.0037284255261109335,0.0010652644360316954,0.002929477199087162,0.9651761154458878,-0.00489797126633169,0.25256138276610274,0.06799870576367446,26.5
9.314,-4.79466157051282,0.20385618589743587,8.539508685897436,0.0037284255261109335,0.0005326322180158477,0.0031957933080950856,0.9651370303706314,-0.005464208726573736,0.252736688141204,0.06785883507522966,26.5
9.334,-4.767720224358974,0.2290014423076923,8.525139967948718,0.00346210941710301,-0.0005326322180158477,0.002929477199087162,0.9652813466554652,-0.005623493611651892,0.25218839053109376,0.06783298460150558,26.5
9.354,-4.777598717948718,0.22451121794871792,8.531426282051282,0.0031957933080950856,0.0,0.002663161090079238,0.9651464942643386,-0.005844814569516371,0.2527140761696879,0.06777668078038487,26.5
9.375,-4.765924134615385,0.24516625,8.556571538461538,0.003994741635118857,0.0,0.002663161090079238,0.9652529909082564,-0.005384703490207539,0.2522825041179116,0.06790586592470545,26.5
9.395,-4.764128044871795,0.24157407051282048,8.550285224358975,0.004527373853134705,-0.0005326322180158477,0.0031957933080950856,0.9653746022040928,-0.004995821191190572,0.2517941714526769,0.06801922090391384,26.5
9.415,-4.755147596153845,0.24426820512820513,8.55118326923077,0.002663161090079238,-0.0005326322180158477,0.0037284255261109335,0.9655116343959077,-0.0047532767994792596,0.25124846172447673,0.06810947574966977,26.5
9.436,-4.770414358974358,0.2316955769230769,8.541304775641025,0.0018642127630554668,-0.0005326322180158477,0.002929477199087162,0.9653968501083149,-0.005108703446613911,0.25170418748053963,0.06802811885389567,26.5
9.456,-4.777598717948718,0.20655032051282052,8.537712596153845,0.0023968449810713144,-0.0010652644360316954,0.002663161090079238,0.9653389680320175,-0.005649387722316958,0.2519501536264645,0.06789610669871586,26.5
9.476,-4.79645766025641,0.2263073076923077,8.561061762820513,0.002663161090079238,-0.00026631610900792384,0.002929477199087162,0.9651927711090413,-0.00573856208416896,0.2525122748281714,0.06787882265595141,26.5
9.497,-4.792865480769231,0.22989948717948716,8.541304775641025,0.002663161090079238,-0.00026631610900792384,0.002663161090079238,0.9650423728673835,-0.00561343816935227,0.2530795844142332,0.06791488669745378,26.5
9.517,-4.780292852564102,0.25953496794871794,8.550285224358975,0.0023968449810713144,-0.0015978966540475428,0.0018642127630554668,0.9651053756850971,-0.005015683323673004,0.25280770104495165,0.06807880020160965,26.5
9.537,-4.8027439743589735,0.2218170833333333,8.532324326923076,0.0031957933080950856,-0.0010652644360316954,0.0021305288720633907,0.9650437594747738,-0.005541193193357386,0.25306889256384824,0.0679409529907876,26.5
9.558,-4.801845929487179,0.19936596153846153,8.504484935897436,0.0037284255261109335,-0.0007989483270237714,0.0018642127630554668,0.9651505680137843,-0.005065599701177042,0.2526369586648288,0.06806825896791158,26.5
9.578,-4.730900384615384,0.2218170833333333,8.529630192307692,0.00346210941710301,-0.0023968449810713144,0.0015978966540475428,0.9652999120684677,-0.005242488324734155,0.25207394348178774,0.06802443012855142,26.5
9.598,-4.740778878205128,0.21463272435897432,8.543100865384615,0.003994741635118857,-0.0015978966540475428,0.0018642127630554668,0.9654277159271145,-0.005553124349591378,0.251597783887942,0.06794882833713418,26.5
9.619,-4.771312403846154,0.2505545192307692,8.539508685897436,0.0031957933080950856,-0.0005326322180158477,0.002929477199087162,0.9652545919122864,-0.004388266179989911,0.25219927646459656,0.06826302705647558,26.5
9.639,-4.771312403846154,0.2505545192307692,8.539508685897436,0.0031957933080950856,-0.0005326322180158477,0.002929477199087162,0.9652545919122864,-0.004388266179989911,0.25219927646459656,0.06826302705647558,26.5
9.659,-4.780292852564102,0.25953496794871794,8.53861064102564,0.00346210941710301,-0.001331580545039619,0.0031957933080950856,0.9651148017147707,-0.004096183566758665,0.25271666108630647,0.06834420239226663,26.5
9.680,-4.7452691025641025,0.25863692307692304,8.51436342948718,0.002929477199087162,-0.0010652644360316954,0.002663161090079238,0.9652640682058826,-0.004057751773486928,0.25213980656441637,0.06836908092722047,26.5
9.700,-4.755147596153845,0.23079753205128203,8.543100865384615,0.003994741635118857,0.001331580545039619,0.0021305288720633907,0.9653834146172606,-0.005079219422219514,0.2517344524341981,0.06810895513538473,26.5
9.720,-4.773108493589743,0.19667182692307691,8.548489134615384,0.004261057744126781,0.0018642127630554668,0.002663161090079238,0.9653688470967959,-0.005669752861604549,0.25181827645070026,0.06795880077583903,26.5
9.740,-4.76143391025641,0.2388799358974359,8.520649743589743,0.0037284255261109335,0.0015978966540475428,0.002663161090079238,0.9652596297276946,-0.005149423963854243,0.25221074948783506,0.0680960240658649,26.5
9.760,-4.795559615384615,0.2406760256410256,8.526038012820512,0.002929477199087162,0.0005326322180158477,0.002929477199087162,0.9651088443391664,-0.0051177087857339175,0.25278373010235045,0.06811103750968055,26.5
9.781,-4.795559615384615,0.2406760256410256,8.526038012820512,0.002929477199087162,0.0005326322180158477,0.002929477199087162,0.9651088443391664,-0.0051177087857339175,0.25278373010235045,0.06811103750968055,26.5
9.801,-4.766822179487179,0.23349166666666665,8.515261474358974,0.002929477199087162,-0.002929477199087162,0.001331580545039619,0.9651039729892598,-0.005130926507651793,0.2528015775980888,0.06811282755426391,26.5
9.821,-4.766822179487179,0.23349166666666665,8.515261474358974,0.002929477199087162,-0.002929477199087162,0.001331580545039619,0.9651039729892598,-0.005130926507651793,0.2528015775980888,0.06811282755426391,26.5
9.842,-4.742574967948718,0.23079753205128203,8.53861064102564,0.00346210941710301,0.0,0.002663161090079238,0.9653064112854455,-0.004800224031276932,0.2520068561601112,0.06821315583346786,26.5
9.862,-4.737186698717949,0.22810339743589741,8.53861064102564,0.003994741635118857,0.0021305288720633907,0.00346210941710301,0.9654341314024834,-0.005061048861259479,0.2515254949941755,0.06816339982345024,26.5
9.882,-4.756045641025641,0.21822490384615384,8.530528237179487,0.004527373853134705,0.0015978966540475428,0.0031957933080950856,0.9654075503405645,-0.005636690356492065,0.251654407772482,0.06801873650647261,26.5
9.903,-4.778496762820512,0.2074483653846154,8.539508685897436,0.003994741635118857,0.0,0.0023968449810713144,0.9653201733394253,-0.006092774681159854,0.25201149767580266,0.06789732012256004,26.5
9.923,-4.744371057692307,0.24337016025641023,8.516159519230769,0.004261057744126781,0.001331580545039619,0.0023968449810713144,0.9653556584629055,-0.005442278449782042,0.2518440757264195,0.06806905170803318,26.5
9.943,-4.784783076923077,0.22810339743589741,8.544896955128205,0.004527373853134705,0.0010652644360316954,0.00346210941710301,0.965211672664072,-0.005590013671010053,0.2524020472979694,0.06803223662335316,26.5
9.964,-4.76323,0.2316955769230769,8.517057564102563,0.0037284255261109335,0.0007989483270237714,0.0031957933080950856,0.9652180961563712,-0.004913232086941007,0.25234100012824145,0.0682195474699811,26.5
9.984,-4.775802628205128,0.2263073076923077,8.561061762820513,0.002929477199087162,0.0007989483270237714,0.0023968449810713144,0.9653006039259421,-0.005423221966031218,0.2520477052747511,0.06809762836876881,26.5
10.004,-4.788375256410256,0.22091903846153846,8.535916506410256,0.002663161090079238,0.0010652644360316954,0.002663161090079238,0.965176108472123,-0.005742149770481402,0.2525381012196551,0.0680192236282768,26.5
10.025,-4.76143391025641,0.202958141025641,8.544896955128205,0.0031957933080950856,0.00026631610900792384,0.002929477199087162,0.9652823146000366,-0.006169185392051216,0.2521476875811548,0.0679230293749564,26.5
10.045,-4.768618269230769,0.22720535256410257,8.561061762820513,0.0031957933080950856,-0.0007989483270237714,0.002663161090079238,0.965402447799569,-0.005778033803294811,0.25166548034536723,0.06803832824595336,26.5
10.065,-4.764128044871795,0.22091903846153846,8.552979358974358,0.0031957933080950856,-0.001331580545039619,0.0023968449810713144,0.9654888281220021,-0.006286647172954666,0.25135497508988913,0.06791522168473786,26.5
10.085,-4.776700673076923,0.23798189102564102,8.53681455128205,0.0031957933080950856,-0.0010652644360316954,0.0018642127630554668,0.965369609000747,-0.005846112394624303,0.25179347218696674,0.06802490978785401,26.5
10.105,-4.783885032051281,0.24516625,8.53322237179487,0.0031957933080950856,-0.00026631610900792384,0.0023968449810713144,0.9652625911861499,-0.006232245176366907,0.2522211707608647,0.06792473920951046,26.5
10.125,-4.793763525641025,0.2388799358974359,8.549387179487178,0.0037284255261109335,0.0007989483270237714,0.0031957933080950856,0.9651386135582027,-0.00577797607415677,0.2526728312584154,0.06804786517807264,26.5
10.145,-4.7587397756410255,0.2263073076923077,8.530528237179487,0.003994741635118857,0.001331580545039619,0.002663161090079238,0.9652830334295227,-0.0057213827381422154,0.2521148614835408,0.06807369368410728,26.5
10.165,-3.6981487820512817,-0.08441621794871795,9.10258282051282,0.005060006071150552,-0.011185276578332801,0.006125270507182248,0.9654520497476373,-0.00584352634184521,0.2514631513551154,0.0680769883920575,26.5
10.185,-4.58990733974359,-0.04041201923076923,6.812568397435896,0.0007989483270237714,0.01810949541253882,0.009853696033293181,0.9652790337238637,-0.006172907145754404,0.2521198788764972,0.06807238019780462,26.5
10.206,-5.019172788461538,1.5868452884615385,8.875377467948718,0.007989483270237714,0.02663161090079238,0.005060006071150552,0.9652587416750281,-0.005513299220845005,0.25216345465361806,0.06825508983801497,26.5
10.226,-5.495136570512821,-0.46159506410256407,9.165445961538461,0.002663161090079238,-0.0005326322180158477,0.004527373853134705,0.9652060511370711,-0.0060630279563389025,0.25238453647613956,0.06813636538667664,26.5
10.246,-5.007498205128204,1.0938186538461538,9.046005993589743,-0.001331580545039619,0.013582121559404114,0.002663161090079238,0.9651599981959724,-0.005439870186463203,0.2525222177498026,0.0683309244590349,26.5
10.266,-4.373478525641025,-0.7642361858974358,8.674215416666666,-0.0007989483270237714,-0.024501082028728992,-0.0031957933080950856,0.9653035186399028,-0.0059976240047188495,0.25200631364965276,0.06816130345316003,26.5
10.286,-4.862912980769231,0.503803173076923,8.42455894230769,-0.0018642127630554668,-0.02024002428460221,-0.008522115488253563,0.9652726480101403,-0.005484372326553639,0.2521199649047671,0.06822140397334567,26.5
10.307,-4.931164391025641,-0.22989948717948716,8.849334166666667,0.014114753777419962,0.006391586616190171,-0.00905474770626941,0.9652855564233958,-0.006011305249563297,0.2521363509909579,0.06793319717587609,26.5
10.327,-4.155253621794872,0.629529455128205,8.496402532051281,0.007723167161229791,-0.010120012142301104,-0.00692421883420602,0.9654259999417043,-0.005542714179002287,0.2516020842927562,0.0679581351688758,26.5
10.347,-5.1134675,0.21463272435897432,8.525139967948718,0.00905474770626941,-0.003994741635118857,0.009853696033293181,0.9652823562792979,-0.005498650613219777,0.25214091547083783,0.06800511924001215,26.5
10.367,-4.845850128205128,0.378076891025641,8.340142724358973,-0.0015978966540475428,0.01464738599543581,0.008522115488253563,0.9651131213893424,-0.005127642223275432,0.25274799529529535,0.06818226368756145,26.5
10.388,-4.581824935897436,0.05837291666666666,8.765815993589744,0.00026631610900792384,-0.005858954398174324,0.00905474770626941,0.9652593642989871,-0.005384215899208753,0.25217839084048554,0.06820138594903682,26.5
10.408,-4.783885032051281,0.19307964743589742,8.504484935897436,-0.002929477199087162,-0.009321063815277334,0.0018642127630554668,0.965204894487191,-0.005930374269623364,0.25240585144001054,0.06808544982473094,26.5
10.428,-4.689590320512821,0.2819860897435897,8.531426282051282,0.007723167161229791,0.005060006071150552,-0.001331580545039619,0.9653028624386527,-0.0054545304926264665,0.25202029470841214,0.06816452831153277,26.5
10.448,-4.603378012820513,0.132910641025641,8.559265673076922,0.005060006071150552,0.0018642127630554668,-0.007190534943213943,0.9654405098485991,-0.005712266072699335,0.25152749686795256,0.06801404471823443,26.5
10.469,-4.834175544871795,0.4005280128205128,8.600575737179486,0.005858954398174324,0.0021305288720633907,0.005326322180158476,0.9653778447343667,-0.005035496526825221,0.2517303278785514,0.06820632446419046,26.5
10.489,-5.07844375,0.05747487179487179,8.358103621794871,0.0,0.009853696033293181,0.004261057744126781,0.9652217636672525,-0.005327432136838055,0.2523337495426224,0.06816336443916997,26.5
10.509,-4.633013493589743,0.2819860897435897,8.554775448717947,0.0023968449810713144,0.0031957933080950856,0.005326322180158476,0.9653459767323732,-0.005060174686434251,0.2518331108586188,0.0682760874247624,26.5
10.529,-4.703959038461538,-0.11225560897435896,8.555673493589744,-0.0015978966540475428,-0.009587379924285258,0.003994741635118857,0.9654127618390722,-0.00567773156901982,0.2515952081225367,0.06816020754269018,26.5
10.550,-4.82609314102564,0.4139986858974359,8.549387179487178,0.004527373853134705,0.0,0.006125270507182248,0.9653444470114217,-0.0050267458957024,0.2518171694831247,0.06835893214071989,26.5
10.570,-4.929368301282051,0.24875842948717947,8.441621794871795,0.006125270507182248,0.006391586616190171,0.00692421883420602,0.9651747261500134,-0.00497061059175441,0.25245736281435177,0.06839825284621504,26.5
10.590,-4.729104294871795,0.4993129487179487,8.523343878205129,0.006391586616190171,0.00026631610900792384,0.005060006071150552,0.9651730704654096,-0.004259665542391068,0.2524226511352377,0.0685974087826838,26.5
10.611,-4.729104294871795,0.4993129487179487,8.523343878205129,0.006391586616190171,0.00026631610900792384,0.005060006071150552,0.9651730704654096,-0.004259665542391068,0.2524226511352377,0.0685974087826838,26.5
10.631,-4.730900384615384,0.25145256410256406,8.57902266025641,0.002929477199087162,-0.004527373853134705,-0.004261057744126781,0.9651893523538447,-0.004140651365771637,0.25237536056280774,0.06854959146359449,26.5
10.651,-4.706653173076923,0.07812990384615384,8.491912307692308,-0.00026631610900792384,-0.007723167161229791,-0.0023968449810713144,0.965260768616365,-0.004757692026277887,0.25213999179721913,0.06836985792895667,26.5
10.671,-4.657260705128205,0.00987849358974359,8.67690955128205,0.0,-0.006125270507182248,-0.001331580545039619,0.9653819369959984,-0.005238319053223998,0.25170215653432765,0.06823708765268119,26.5
10.692,-4.576436666666666,0.15985198717948718,8.526038012820512,0.0031957933080950856,-0.002929477199087162,0.0018642127630554668,0.9655115192073291,-0.005590951308974688,0.25122020703567916,0.06815170664309636,26.5
10.712,-4.723716025641026,0.19846791666666666,8.689482179487179,0.004261057744126781,0.00026631610900792384,0.003994741635118857,0.9654644516330554,-0.00490093890862368,0.25136262011355814,0.06834622623338327,26.5
10.733,-4.7587397756410255,0.33586878205128207,8.420068717948716,0.005858954398174324,0.00692421883420602,0.005326322180158476,0.9653371176547967,-0.004357939628728147,0.2518182346981279,0.0685042649302966,26.5
10.753,-4.932062435897436,0.22451121794871792,8.566450032051282,0.0037284255261109335,0.007190534943213943,0.0055926382891664005,0.9651869522405223,-0.003969221715499012,0.25236288543997537,0.06863939507334597,26.5
10.774,-4.772210448717948,0.2909665384615384,8.422762852564102,0.00346210941710301,0.003994741635118857,0.006657902725198095,0.9651774289311934,-0.004565134404270681,0.2524218257135184,0.06851942887310364,26.5
10.794,-4.834175544871795,0.1436871794871795,8.600575737179486,0.0018642127630554668,0.0005326322180158477,0.003994741635118857,0.9651491826378431,-0.003907049266738531,0.25249124869040057,0.06870196179362763,26.5
10.814,-4.642891987179487,0.1239301923076923,8.68229782051282,0.002929477199087162,-0.0021305288720633907,0.0007989483270237714,0.9652901866208776,-0.004201158854244213,0.2519717540909251,0.06861079374307734,26.5
10.835,-4.725512115384615,0.34574727564102564,8.462276826923077,0.003994741635118857,-0.0018642127630554668,0.0,0.9652583146535331,-0.003520867295543251,0.2520591876462976,0.06877612528193748,26.5
10.855,-4.9114074038461535,0.2316955769230769,8.57543048076923,0.005060006071150552,0.004527373853134705,0.002929477199087162,0.9651074444637647,-0.0037242713458998976,0.25264633484142246,0.06872830519341651,26.5
10.875,-4.843155993589743,0.36101403846153846,8.381452788461537,0.002929477199087162,0.005858954398174324,0.0037284255261109335,0.9649568319295634,-0.0033897400482270903,0.2531966067149293,0.06883531450434023,26.5
10.896,-4.894344551282051,0.13111455128205127,8.566450032051282,0.001331580545039619,0.0018642127630554668,0.003994741635118857,0.9648992200036527,-0.003948253089437948,0.25344094557834834,0.0687138533211268,26.5
10.916,-4.79645766025641,0.24696233974358975,8.409292179487178,0.0007989483270237714,-0.0023968449810713144,0.0023968449810713144,0.9647670035524146,-0.004108045362550018,0.25395482253527346,0.06866367985239566,26.5
10.937,-4.76323,0.08980448717948718,8.622128814102563,0.002929477199087162,-0.005326322180158476,0.00026631610900792384,0.9648674782715903,-0.00462290261660847,0.2536035513512086,0.06851727437131966,26.5
10.957,-4.624033044871794,0.3188059294871795,8.53681455128205,0.004527373853134705,-0.004261057744126781,-0.0015978966540475428,0.9650114603667694,-0.0043109630601735815,0.25304681868905665,0.06856824709467561,26.5
10.977,-4.755147596153845,0.08980448717948718,8.593391378205128,0.004793689962142629,-0.0023968449810713144,-0.001331580545039619,0.9650881262127081,-0.004849624546524358,0.2527916257063762,0.06839432547901421,26.5
10.997,-4.670731378205128,0.3789749358974359,8.53681455128205,0.005326322180158476,0.0007989483270237714,0.0010652644360316954,0.9651647878773311,-0.004276140038550746,0.252472011530941,0.06853123566373068,26.5
11.018,-4.8216029166666665,0.12572628205128203,8.520649743589743,0.0031957933080950856,0.0015978966540475428,0.002929477199087162,0.9651198204628084,-0.004843953325417083,0.25267156155858495,0.06839115619408609,26.5
11.038,-4.727308205128205,0.343053141025641,8.562857852564102,0.002663161090079238,0.0015978966540475428,0.0031957933080950856,0.9651811468433833,-0.004260173746449019,0.25240116124796663,0.068562806961351,26.5
11.058,-4.777598717948718,0.11854192307692307,8.524241923076923,0.0021305288720633907,0.0007989483270237714,0.003994741635118857,0.9651834431780573,-0.004868602525585646,0.2524175538435759,0.06842949828855514,26.5
11.078,-4.694080544871794,0.36101403846153846,8.579920705128204,0.003994741635118857,0.0021305288720633907,0.004261057744126781,0.9652591756844157,-0.0043151651739432514,0.2520923949074812,0.06859684786033986,26.5
11.098,-4.8045400641025635,0.1490754487179487,8.499096666666667,0.0037284255261109335,0.0037284255261109335,0.00346210941710301,0.9651934128141869,-0.004852884460709706,0.25236970232291067,0.06846647881963215,26.5
11.119,-4.778496762820512,0.34125705128205125,8.557469583333333,0.003994741635118857,0.004261057744126781,0.004261057744126781,0.9651693284306626,-0.004167903194301865,0.2524205023305177,0.06866357143985315,26.5
11.139,-4.890752371794871,0.17332266025641024,8.418272628205127,0.002929477199087162,0.004527373853134705,0.0037284255261109335,0.9650292477889243,-0.004443573110543779,0.25296698407850293,0.06860401253702833,26.5
11.159,-4.812622467948717,0.265821282051282,8.526038012820512,0.002929477199087162,0.0007989483270237714,0.0021305288720633907,0.9648780944722432,-0.004256863269116714,0.25353381518900314,0.06864944630825077,26.5
11.179,-4.8332775,0.1266243269230769,8.455092467948718,0.001331580545039619,-0.0037284255261109335,0.0005326322180158477,0.9648280306230768,-0.004810070836473696,0.25375517151274296,0.06849852168537628,26.5
11.199,-4.750657371794872,0.2263073076923077,8.584410929487179,0.002663161090079238,-0.006391586616190171,0.0,0.9649923820624564,-0.004928996938875925,0.25313741927481925,0.0684606055588699,26.5
11.219,-4.769516314102564,0.22810339743589741,8.482931858974359,0.0023968449810713144,-0.002929477199087162,0.0010652644360316954,0.9649458797307829,-0.005483300853607943,0.2533439799591764,0.06830966564680906,26.5
11.239,-4.748861282051282,0.2765978205128205,8.597881602564103,0.004261057744126781,-0.0023968449810713144,0.0015978966540475428,0.9650756475205106,-0.005112599504613328,0.25283106400587413,0.0684054746553981,26.5
11.259,-4.769516314102564,0.287374358974359,8.503586891025641,0.002929477199087162,-0.0010652644360316954,0.0018642127630554668,0.9650444689210221,-0.004448321333573293,0.25291548106155437,0.068579478575288,26.5
11.279,-4.781190897435897,0.19487573717948717,8.560163717948717,0.0023968449810713144,-0.001331580545039619,0.001331580545039619,0.965064021592801,-0.0050585705260702924,0.25287252044577696,0.0684202710807454,26.5
11.300,-4.706653173076923,0.28019,8.523343878205129,0.0023968449810713144,-0.0005326322180158477,0.001331580545039619,0.9651908709992589,-0.004721643456765861,0.2523688360190308,0.06851466433661199,26.5
11.320,-4.718327756410257,0.10058102564102564,8.564653942307691,0.002929477199087162,-0.0007989483270237714,0.001331580545039619,0.9652709508809727,-0.005251734962767571,0.2520891549419155,0.06837739850194982,26.5
11.340,-4.673425512820512,0.2954567628205128,8.567348076923077,0.0037284255261109335,-0.00026631610900792384,0.0018642127630554668,0.9654006196520288,-0.004930466966743044,0.25157461874373355,0.06846565032856809,26.5
11.360,-4.7416769230769225,0.10058102564102564,8.565551987179486,0.0031957933080950856,0.002663161090079238,0.003994741635118857,0.9652872182729669,-0.005322169351736271,0.2520250661544585,0.06837855498670596,26.5
