t_s,ax,ay,az,gx,gy,gz,qw,qx,qy,qz,temp_c
0.000,0.07723185897435897,0.16793439102564103,9.546216987179486,0.10199906975003482,-0.039414784133172724,0.021837920938649752,0.9626315410515827,0.02202966870908172,-0.0022703381758330476,0.26990749421568644,30.75
0.020,0.22810339743589741,0.30353916666666664,9.768932115384615,0.011185276578332801,-0.014913702104443734,0.043675841877299504,0.9621257065655415,0.02309216297769521,-0.0028207583616907264,0.2716117083209673,30.75
0.040,0.09609080128205127,0.46518724358974356,9.653084326923075,0.006657902725198095,-0.027963191445832,0.025832662573768612,0.9620545113939138,0.02342801742491295,-0.00244784937009325,0.2718386527696473,30.75
0.061,0.23977798076923076,0.42926544871794864,9.751869262820513,-0.007456851052221867,-0.04074636467821235,-0.030892668644919165,0.9621288085764188,0.02366668704442839,-0.0034818700121385386,0.2715435880533374,30.75
0.081,0.055678782051282044,0.33586878205128207,9.877595544871793,-0.012783173232380343,-0.056192699000671927,-0.08042746492039299,0.9623630476362358,0.023189942912309212,-0.0036193639546680703,0.270751715223715,30.75
0.101,0.2002640064102564,0.33317464743589736,9.689904166666667,-0.03195793308095086,-0.01864212763055467,-0.10359696640408236,0.9626596491254309,0.0223315234670336,-0.004123186615324454,0.26976045362039064,30.75
0.121,0.4310615384615385,0.47237160256410254,9.93058019230769,-0.030626352535911238,0.022636869265673525,-0.08681905153658316,0.9628885065175888,0.02232601290917888,-0.004529464652995643,0.2689363439809946,30.75
0.141,0.2352877564102564,0.4822500961538461,9.614468397435896,-0.005326322180158476,0.010652644360316953,-0.026897927009800305,0.9629483366412296,0.022903221885539567,-0.004500128146484233,0.26867395153571605,30.75
0.161,0.17422070512820512,0.32329615384615384,9.719539647435898,0.011185276578332801,0.01384843766841204,0.03568635860706179,0.9628644950706645,0.022314860874448283,-0.004295141355894225,0.26902706718321345,30.75
0.181,0.195773782051282,0.3690964423076923,9.844367884615384,0.015180018213451657,0.04394215798630743,0.07190534943213943,0.9626813372014387,0.02168739871924553,-0.003942580457132443,0.2697383098489748,30.75
0.202,0.12482823717948717,0.503803173076923,9.583036826923076,0.017576863194522972,0.033289513625990474,0.06977482056007604,0.9624844001107957,0.02225695968884906,-0.0031515561061086347,0.2704042806297279,30.75
0.222,0.12842041666666668,0.3322766025641025,9.814732403846154,0.009853696033293181,0.015446334322459582,0.0458063707493629,0.9623732672738607,0.021684650017092015,-0.0027736750512548512,0.27085010082512523,30.75
0.242,0.12123605769230768,0.45441070512820514,9.918007564102563,-0.00346210941710301,0.0007989483270237714,0.023968449810713145,0.9623064219786874,0.02200697770981135,-0.0022267389435235946,0.27106656891681363,30.75
0.262,0.17062852564102562,0.4005280128205128,9.569566153846154,-0.01331580545039619,0.004527373853134705,0.022636869265673525,0.962235287257554,0.022275147697738744,-0.0027415532386046763,0.27129237666631245,30.75
0.282,0.13201259615384614,0.3744847115384615,9.678229583333334,-0.013049489341388268,0.012250541014364496,0.016245282649483352,0.962208380460259,0.021597466563098498,-0.0022552619272702304,0.27144704051387397,30.75
0.302,0.14189108974358974,0.48674032051282046,9.809344134615385,-0.010652644360316953,0.014114753777419962,-0.0055926382891664005,0.962216311891734,0.02205097087013998,-0.0018613032744285052,0.2713854442730379,30.75
0.322,0.03143157051282051,0.2388799358974359,9.756359487179488,0.0007989483270237714,-0.0018642127630554668,-0.01251685712337242,0.9622644564037166,0.021445548315632643,-0.0016458306391236223,0.2712646229072435,30.75
0.342,0.2478603846153846,0.43016349358974354,9.691700256410256,0.0005326322180158477,-0.006391586616190171,-0.017843179303530896,0.9623005993250716,0.021855624576403436,-0.0022359381779782955,0.2710994075859402,30.75
0.363,0.12931846153846152,0.48314814102564096,9.914415384615383,-0.011717908796348648,-0.01944107595757844,-0.049801112384481754,0.9624300356327262,0.022319934076068033,-0.0020424886586820974,0.2706031694103165,30.75
0.383,-0.00987849358974359,0.2505545192307692,9.447432051282052,-0.014913702104443734,-0.04660531907638667,-0.09347695426178126,0.9626994129172348,0.021669894584739783,-0.002331781490646768,0.26969393547608295,30.75
0.403,0.32329615384615384,0.44543025641025635,10.03565144230769,-0.016511598758491276,-0.027963191445832,-0.09321063815277333,0.9629414040824196,0.021932203179266578,-0.0031882866444825847,0.2687985595120526,30.75
0.423,0.22002099358974359,0.36101403846153846,9.543522852564102,-0.0021305288720633907,-0.0005326322180158477,-0.06018744063579078,0.9631003997229803,0.0217712231199384,-0.0038299147147548966,0.26823304354716504,30.75
0.443,0.20385618589743587,0.3619120833333333,9.827305032051282,0.00026631610900792384,-0.016777914867499202,-0.05805691176372739,0.9632426465365842,0.022476107652727683,-0.003904511330754206,0.26766244276933604,30.75
0.463,0.19487573717948717,0.5576858653846154,9.527358044871795,-0.01864212763055467,-0.010652644360316953,-0.05486111845563231,0.9634065246085413,0.02166815396439039,-0.004030503103794266,0.26713688343281655,30.75
0.483,0.19218160256410255,0.10596929487179486,10.040141666666665,0.007190534943213943,0.02290318537468145,-0.013049489341388268,0.9634519902646956,0.021031877140950315,-0.003924952946221494,0.26702531217713177,30.75
0.503,0.007184358974358974,0.41130455128205123,9.694394391025641,0.022370553156665602,0.023435817592697295,0.015446334322459582,0.9634133990436865,0.021148366694577588,-0.0029838253529779293,0.2671674866362018,30.75
0.524,0.34844141025641023,0.4714735576923077,9.830897211538462,0.006657902725198095,0.0037284255261109335,0.009587379924285258,0.9633735561173172,0.021634730696969594,-0.003430038213416848,0.26726684163846137,30.75
0.544,0.19487573717948717,0.45081852564102565,9.62255080128205,0.011451592687340724,0.0023968449810713144,0.007989483270237714,0.9633362819690927,0.022397469100633942,-0.0033893677004969472,0.26733887372853493,30.75
0.564,0.2128366346153846,0.3735866666666667,9.953031314102564,0.04394215798630743,-0.01384843766841204,0.04607268685837082,0.9632060926440995,0.02245148457083025,-0.0039365295319815025,0.26779555199647365,30.75
0.584,-0.21104054487179486,0.27569977564102566,9.506703012820513,0.04607268685837082,-0.0391484680241648,0.08681905153658316,0.9629739401847218,0.022649634013815433,-0.0036488786166180205,0.2686165860273584,30.75
0.604,0.17062852564102562,0.2316955769230769,10.050918205128204,0.025832662573768612,-0.05512743456464023,0.05113269292952137,0.962841024159196,0.022393084092031744,-0.004222314746907682,0.26910571164339103,30.75
0.625,0.0763338141025641,0.4993129487179487,9.533644358974358,-0.002663161090079238,-0.05486111845563231,-0.0513990090385293,0.9629770365698896,0.022823290538094433,-0.004161706557714625,0.26858332905564836,30.75
0.645,0.4499204807692307,0.47955596153846153,9.775218429487179,-0.01384843766841204,-0.06498113059793341,-0.12623383566975588,0.9633021160779782,0.02321305894896098,-0.0053588702444523125,0.267360186945672,30.75
0.665,0.3502375,0.3726886217948717,9.779708653846154,0.0055926382891664005,-0.04793689962142629,-0.08921589651765448,0.9634234148383672,0.023357246374078208,-0.006357850117624515,0.26688825475258726,30.75
0.685,0.18948746794871796,0.22989948717948716,9.778810608974359,-0.0037284255261109335,-0.03195793308095086,-0.021837920938649752,0.9634850803569345,0.02265122274160457,-0.006687324712786923,0.26671839405276787,30.75
0.705,0.2352877564102564,0.4777598717948718,9.585730961538461,-0.021837920938649752,-0.036751623043093484,-0.036751623043093484,0.9636618917967987,0.023138072872872038,-0.006923216421630539,0.26603093233066694,30.75
0.726,0.4148967307692308,0.5936076602564102,9.724927916666667,-0.024501082028728992,-0.03621899082507764,-0.09880327644193974,0.963937165217891,0.02364924742817064,-0.007451816310454901,0.2649723099522911,30.75
0.746,0.3089274358974359,0.5451132371794871,9.70337483974359,-0.006657902725198095,-0.00905474770626941,-0.08921589651765448,0.9640351795642804,0.024299206910434253,-0.007419552326234638,0.2645575010262758,30.75
0.767,0.22720535256410257,0.3250922435897436,9.779708653846154,0.004261057744126781,0.02077265650261806,0.016511598758491276,0.9638724568149813,0.02361197632033524,-0.007014964509719034,0.26522283431225785,30.75
0.787,0.19487573717948717,0.31700983974358976,9.827305032051282,0.008255799379245638,0.04261057744126781,0.09187905760773372,0.9636724413532554,0.022971335931118008,-0.006366201838070919,0.26602107994659613,30.75
0.807,0.132910641025641,0.21014249999999998,9.735704455128205,0.017576863194522972,0.042077945223251964,0.038615835806148954,0.963744829325503,0.02247070202786143,-0.005811175542922396,0.2658142241068781,30.75
0.827,0.1203380128205128,0.4418380769230769,9.76983016025641,0.026098978682776535,0.02370213370170522,-0.0828243099014643,0.9640679636498463,0.02275104129254821,-0.004942341187078941,0.26463356712203767,30.75
0.847,0.1652402564102564,0.6340196794871795,9.695292435897436,0.012783173232380343,0.006125270507182248,-0.12703278399677967,0.9643256113179807,0.023418285923766248,-0.00458256531524264,0.26364123223753727,30.75
0.868,0.18858942307692309,0.4436341666666666,9.732112275641025,0.010120012142301104,0.004527373853134705,-0.05938849230876701,0.9643704517086346,0.023985426435594127,-0.003933920133763644,0.26343662513471466,30.75
0.888,0.22451121794871792,0.28108804487179484,9.794975416666666,0.019973708175594285,0.01864212763055467,0.0031957933080950856,0.9643563882442766,0.02349591344557729,-0.003953800376791959,0.26353190692284784,30.75
0.908,0.08172208333333333,0.34574727564102564,9.7366025,0.008788431597261486,0.019973708175594285,0.0018642127630554668,0.9643884348976877,0.02296872099603666,-0.003389848118363379,0.26346896102032413,30.75
0.928,0.20655032051282052,0.405916282051282,9.782402788461537,-0.0021305288720633907,0.0055926382891664005,-0.010918960469324876,0.9644105999283848,0.02288381918898036,-0.004043596208064473,0.2633859808243503,30.75
0.948,0.3098254807692307,0.4373478525641025,9.728520096153845,0.007723167161229791,-0.007723167161229791,-0.0007989483270237714,0.964397921674829,0.02329707105814785,-0.00467513126219933,0.2633857215132654,30.75
0.968,0.3026411217948718,0.40861041666666664,9.73839858974359,0.004261057744126781,-0.006125270507182248,0.0031957933080950856,0.9643781960336141,0.023490826982703994,-0.00536909602705107,0.26342750211485766,30.75
0.988,0.21553076923076925,0.3717905769230769,9.807548044871794,0.0010652644360316954,0.002663161090079238,0.002929477199087162,0.964383360934872,0.02283802583603912,-0.005406610339878554,0.2634652278622469,30.75
1.009,0.13919695512820512,0.40771237179487174,9.755461442307691,0.0031957933080950856,0.006391586616190171,0.0031957933080950856,0.9643842666188569,0.02272092803490817,-0.004690696679006775,0.263485755007567,30.75
1.029,0.1840991987179487,0.4822500961538461,9.756359487179488,0.004793689962142629,0.0007989483270237714,-0.001331580545039619,0.9643782362764717,0.023333561922863788,-0.004335855350881915,0.263460362564561,30.75
1.049,0.22451121794871792,0.38526124999999994,9.750971217948717,0.0031957933080950856,-0.0015978966540475428,0.001331580545039619,0.9643858875402843,0.02272668107464622,-0.00449345175191125,0.26348276370917073,30.75
1.069,0.17871092948717948,0.3466453205128205,9.759053621794871,0.0023968449810713144,0.0,0.007190534943213943,0.9643810749313643,0.02224109443149749,-0.0040689805699873054,0.26354870409439846,30.75
1.089,0.13740086538461538,0.4005280128205128,9.756359487179488,0.004793689962142629,0.0010652644360316954,0.0037284255261109335,0.9643792401860181,0.022140678492076533,-0.0034030014379409063,0.2635733124490459,30.75
1.109,0.1553617628205128,0.46518724358974356,9.747379038461538,0.003994741635118857,-0.0010652644360316954,-0.0023968449810713144,0.9643751520724884,0.022768479343126494,-0.0031006653813184866,0.2635385138604217,30.75
1.129,0.18858942307692309,0.3951397435897436,9.759053621794871,0.0005326322180158477,-0.0037284255261109335,-0.0018642127630554668,0.9643849365158306,0.02232850414054641,-0.0036123427754080777,0.2635338367342533,30.75
1.150,0.24696233974358975,0.33946096153846156,9.739296634615384,0.0010652644360316954,-0.0023968449810713144,0.004261057744126781,0.9643754360616474,0.021983458754968946,-0.004185483922192169,0.26358912645709254,30.75
1.170,0.21193858974358973,0.3960377884615385,9.837183525641025,0.0055926382891664005,-0.0007989483270237714,0.00346210941710301,0.9643549301891401,0.022221494910310207,-0.004813254257500393,0.2636334697402863,30.75
1.190,0.1840991987179487,0.40771237179487174,9.70517092948718,0.009321063815277334,0.0018642127630554668,0.005326322180158476,0.9643397103600951,0.02256871693997806,-0.004166556768992499,0.26367065791054894,30.75
1.210,0.31162157051282047,0.5190699358974359,9.735704455128205,0.006657902725198095,-0.0015978966540475428,0.0023968449810713144,0.9643164809931242,0.02320799337277733,-0.004494390932561588,0.26369473635018187,30.75
1.230,0.26222910256410253,0.4139986858974359,9.720437692307693,0.0005326322180158477,-0.0037284255261109335,-0.0007989483270237714,0.9643074291152804,0.02341280922077109,-0.005160499345760533,0.2636975384109088,30.75
1.251,0.13201259615384614,0.4373478525641025,9.80485391025641,-0.0010652644360316954,0.00346210941710301,0.002929477199087162,0.9643076997446017,0.02337250371331549,-0.0044711643207006,0.26371271295306076,30.75
1.271,0.03232961538461538,0.40142605769230766,9.733908365384615,-0.00026631610900792384,0.008522115488253563,0.0023968449810713144,0.9643129128331511,0.023119477049343487,-0.003771229474220142,0.26372689235734226,30.75
1.291,0.14278913461538462,0.31431570512820506,9.778810608974359,0.0021305288720633907,0.001331580545039619,0.0010652644360316954,0.96432438427967,0.022486687926999236,-0.0036424566681901977,0.26374147049550145,30.75
1.311,0.34754336538461533,0.3367668269230769,9.70337483974359,0.0037284255261109335,-0.007989483270237714,0.006125270507182248,0.9643022157585615,0.022468025332235318,-0.004366541276948837,0.26381311157346926,30.75
1.331,0.26222910256410253,0.34484923076923074,9.777014519230768,0.004793689962142629,-0.006657902725198095,0.006125270507182248,0.9642844665368383,0.02223898744432126,-0.005010849159182609,0.26388593449428227,30.75
1.351,0.13201259615384614,0.518171891025641,9.762645801282051,0.0021305288720633907,0.002929477199087162,-0.0055926382891664005,0.9642947793851792,0.022701652378004075,-0.0044930211735646165,0.26381816880292913,30.75
1.371,0.07992599358974359,0.5208660256410256,9.777014519230768,0.0031957933080950856,0.005060006071150552,-0.010918960469324876,0.9643224022266776,0.023030342823862106,-0.0038513192536265457,0.2636988343038168,30.75
1.392,0.21463272435897432,0.46788137820512815,9.746480993589744,0.008788431597261486,-0.0015978966540475428,0.0055926382891664005,0.9642905436473913,0.023771372234751894,-0.0039392061843478675,0.2637482738311904,30.75
1.412,0.2864763141025641,0.40412019230769225,9.745582948717948,0.006391586616190171,-0.005858954398174324,0.016511598758491276,0.9642380881556043,0.02385936000797818,-0.004642447720322647,0.26392060921648164,30.75
1.432,0.2316955769230769,0.2819860897435897,9.755461442307691,-0.004261057744126781,-0.002929477199087162,0.005060006071150552,0.964235658069831,0.023222360275728177,-0.004948812161069232,0.2639807321530469,30.75
1.452,0.2352877564102564,0.33856291666666666,9.761747756410257,-0.005326322180158476,0.0018642127630554668,-0.0015978966540475428,0.9642489198621265,0.022607745230496256,-0.005295310007965307,0.26397891978761345,30.75
1.472,0.19846791666666666,0.468779423076923,9.735704455128205,0.004527373853134705,0.0055926382891664005,0.0010652644360316954,0.9642369205827316,0.023212837883932722,-0.004909123009824829,0.2639776991599473,30.75
1.492,0.059270961538461536,0.44812439102564094,9.761747756410257,0.012250541014364496,0.007723167161229791,0.002929477199087162,0.964234104712912,0.023286638878144496,-0.0041436459162786975,0.2639946097115782,30.75
1.512,0.1652402564102564,0.44812439102564094,9.698884615384616,0.00905474770626941,0.0023968449810713144,0.005326322180158476,0.9642162261616343,0.02370787266109718,-0.0035328087267622924,0.26403129595372105,30.75
1.533,0.24606429487179488,0.2927626282051282,9.610876217948716,-0.00905474770626941,-0.00026631610900792384,-0.005326322180158476,0.964239075313887,0.02311830197516039,-0.003984373802681469,0.263993701661623,30.75
1.553,0.25684083333333335,0.4786579166666666,9.669249134615384,-0.05672533121868777,0.03009372031789539,-0.02290318537468145,0.9642983680965925,0.02307298239484766,-0.004151526133870465,0.2637784289899678,30.75
1.573,0.2577388782051282,0.5711565384615385,9.837183525641025,-0.15046860158947695,0.09933590865995559,-0.023435817592697295,0.9643838073264953,0.022016931380569572,-0.003649479205733134,0.26356367010755394,30.75
1.593,0.18320115384615382,0.3349707371794871,9.894658397435897,-0.22556974432971147,0.12357067457967666,-0.01597896654047543,0.9644867151348526,0.01887671461982097,-0.0032087543454682034,0.2634364247196918,30.75
1.613,-0.04310615384615384,-0.13111455128205127,9.695292435897436,-0.18482337965149914,0.07004113666908396,-0.019707392066586362,0.9645844711726381,0.016256858186258133,-0.002926589969208606,0.26325642937194565,30.75
1.634,0.11315365384615385,0.059270961538461536,9.820120673076923,-0.10546117916713783,0.008522115488253563,-0.007456851052221867,0.9646290739631136,0.014565545005108612,-0.003222013888477056,0.2631885506443483,30.75
1.654,0.20655032051282052,0.819016923076923,9.627041025641025,-0.09347695426178126,-0.047137951294402514,0.08548747099154355,0.9644076508527232,0.014438517817461796,-0.0038442859854420346,0.2639974121941901,30.75
1.674,0.3879553846153846,0.9160057692307692,9.9988316025641,-0.09986854087797144,-0.04607268685837082,0.25592978075661477,0.9637323381648666,0.014244692781542131,-0.004641425761189826,0.2664498569520017,30.75
1.694,0.2002640064102564,0.024247211538461537,9.62614298076923,-0.051665325147537224,0.008522115488253563,0.36298885657780017,0.9627736645227735,0.013049246343015929,-0.004797514191634625,0.26995105469112457,30.75
1.714,-0.029635480769230768,-0.6905965064102564,9.988953108974357,0.027430559227816155,0.04527373853134705,0.3009372031789539,0.9619626311098919,0.012516920269945681,-0.004331422085183157,0.2728597842075852,30.75
1.734,0.08531426282051281,0.003592179487179487,9.432165288461539,0.03302319751698255,0.03755057137011726,0.09534116702483673,0.9616905717979372,0.01331787500160838,-0.004187395551947325,0.27378156263504994,30.75
1.754,0.40142605769230766,0.6699414743589742,9.774320384615384,-0.011451592687340724,0.03728425526110934,-0.08868326429963863,0.9619277292171656,0.01376483907969359,-0.003922843051471027,0.2729288996618188,30.75
1.775,0.1715265705128205,0.6870043269230769,9.875799455128204,-0.09081379317170202,0.060453756744798706,-0.030626352535911238,0.9620192388076788,0.013370466401768383,-0.0034372806611770454,0.27263235298428873,30.75
1.795,-0.0727416346153846,0.5540936858974359,10.102106762820512,-0.18828548906860215,0.06977482056007604,0.2077265650261806,0.9614840424479526,0.010914853838115435,-0.002821673905578262,0.2746294598909721,30.75
1.815,-0.34484923076923074,-0.4095084615384615,9.817426538461538,-0.13049489341388268,0.007456851052221867,0.3174488019374452,0.960627302128822,0.008997915504491355,-0.0029559478839813968,0.2776787465640506,30.75
1.835,-0.5100894871794872,-0.7516635576923077,9.370200192307692,0.05060006071150552,-0.1206411973805895,0.1454085955183264,0.9602200582266537,0.009187347661408926,-0.0037828484589647634,0.2790675948219119,30.75
1.855,0.7723185897435897,0.44004198717948717,10.029365128205127,0.13582121559404114,-0.1331580545039619,-0.12037488127158157,0.9605282880559098,0.011290746846941261,-0.005177672837124832,0.27790487326423985,30.75
1.875,0.8163227884615384,0.7660322756410256,9.794077371794872,0.0793622004843613,-0.03621899082507764,-0.22104237047657677,0.9611201989418178,0.01272236335823666,-0.005633155992013227,0.27577957177824364,30.75
1.895,-0.002694134615384615,0.4310615384615385,9.311827275641024,-0.012783173232380343,0.007456851052221867,-0.1709749419830871,0.961592452011711,0.012994350407406862,-0.005054580203688578,0.2741268945407571,30.75
1.916,0.2909665384615384,0.4373478525641025,9.718641602564102,-0.04767058351241837,0.030360036426903315,-0.07217166554114736,0.9617893074837992,0.013096539784700562,-0.005043208507794629,0.273430749374405,30.75
1.936,0.38346516025641025,0.07453772435897435,10.032957307692307,-0.05086637682051345,0.11771172018150233,0.09454221869781296,0.9615395631423975,0.012063149322955023,-0.004685586181089575,0.27436142991039925,30.75
1.956,-0.32060201923076925,-0.1203380128205128,9.881187724358973,-0.030626352535911238,0.1307612095228906,0.2969424615438351,0.9607371158776427,0.010888804679144055,-0.0031260322126487636,0.2772288874384741,30.75
1.976,-0.7193339423076923,-0.03592179487179487,9.646798012820511,0.029028455881863695,-0.00346210941710301,0.3318298718238731,0.959815137278521,0.010827893739300433,-0.0025487764913976452,0.2804124867165891,30.75
1.996,0.08980448717948718,0.00538826923076923,9.794975416666666,0.08868326429963863,-0.10466223084011406,0.10652644360316953,0.9595087026446927,0.01132177587191585,-0.003440142818952579,0.2814303330445922,30.75
2.016,0.468779423076923,0.09429471153846154,9.754563397435897,0.09693906367888427,-0.08309062601047223,-0.15899071707773052,0.9601286141668993,0.012024772167665355,-0.004401413660600533,0.27926524429304406,30.75
2.036,0.6286314102564101,0.5271523397435898,10.241303717948718,-0.006657902725198095,-0.012783173232380343,-0.23782028534407598,0.9607036000946254,0.011820975015956726,-0.004793751725209422,0.27728302735525495,30.75
2.057,-0.06196509615384615,0.405916282051282,9.266026987179487,-0.09880327644193974,0.038615835806148954,-0.1486043888264215,0.9609410331828979,0.011244471205929573,-0.004050052249971829,0.27649500843497404,30.75
2.077,-0.11584778846153845,-0.22451121794871792,9.827305032051282,-0.038615835806148954,0.03994741635118857,-0.018908443739562592,0.9608730974569079,0.01048794110020224,-0.0035025009470017496,0.2767681812675774,30.75
2.097,0.2676173717948718,0.6394079487179487,9.941356730769229,0.006125270507182248,0.03408846195301425,0.05512743456464023,0.9606798553200998,0.011043250910450709,-0.0034010001353027,0.27741790747815964,30.75
2.117,0.01975698717948718,-0.20116205128205128,9.610876217948716,0.05912217619975909,-0.08096009713840883,0.08815063208162278,0.9601935217749296,0.01248284312108509,-0.004372316876537479,0.27902233282338434,30.75
2.137,0.01975698717948718,-0.20116205128205128,9.610876217948716,0.05912217619975909,-0.08096009713840883,0.08815063208162278,0.9601935217749296,0.01248284312108509,-0.004372316876537479,0.27902233282338434,30.75
2.157,0.28917044871794867,0.13829891025641025,9.511193237179487,0.10093380531400313,-0.05459480234662438,0.07297061386817112,0.9600383436856693,0.013113689788179912,-0.004911971559986988,0.2795179463447918,30.75
2.177,0.10507124999999999,-0.026941346153846156,10.106596987179486,0.016511598758491276,0.037816887479125184,0.023968449810713145,0.9600691943202715,0.011680553551199287,-0.0044191881969748706,0.2794837697642607,30.75
2.198,0.2882724038461538,0.05837291666666666,9.73839858974359,-0.13901700890213622,0.0814927293564247,-0.033289513625990474,0.9602576096510873,0.00929255959139342,-0.00490278075035764,0.27891743255726137,30.75
2.218,0.19667182692307691,0.6789219230769231,9.673739358974359,-0.20985709389824397,0.0346210941710301,-0.08202536157444054,0.9605436086964035,0.008428181125076753,-0.005247564570023597,0.2779521624695458,30.75
2.238,0.002694134615384615,0.6663492948717947,9.434859423076922,-0.049002164057457984,-0.0346210941710301,-0.10972223691126462,0.9608310936828585,0.01004616359534393,-0.00515526889181049,0.2769045091938209,30.75
2.258,-0.11584778846153845,-0.2505545192307692,10.168562083333333,0.21891184160451338,-0.05326322180158476,-0.08468852266451977,0.9608931820793063,0.012198041006960255,-0.004539111898344127,0.27661326232173344,30.75
2.278,0.25863692307692304,-0.24426820512820513,10.15509141025641,0.24900556192240877,-0.020506340393610135,0.04314320965928366,0.9605536807928935,0.013117509137403156,-0.004713209795346115,0.2777451042281023,30.75
2.299,-0.022451121794871794,0.30443721153846154,9.35852560897436,-0.05992112452678286,-0.07776430383031376,0.16405072314888108,0.9601046634832696,0.012885224354095224,-0.005002154959307852,0.27929909523087504,30.75
2.319,0.1338086858974359,0.14458522435897433,9.80485391025641,-0.032490565298966705,0.07962851659336923,-0.017843179303530896,0.9599571022682581,0.010988187849118298,-0.005050496702767821,0.2798858946348975,30.75
2.339,-0.051188557692307686,0.22091903846153846,9.752767307692308,-0.044741106313331204,0.07856325215733753,-0.05060006071150552,0.9601121383346309,0.010289249124090275,-0.003758126207161655,0.27940058994636374,30.75
2.360,0.06465923076923076,0.0987849358974359,10.090432179487179,-0.07803061993932169,0.035153726389045944,-0.06551376281594926,0.9603102981228866,0.008839596991046634,-0.003367867856594398,0.2787734749043912,30.75
2.380,0.06465923076923076,0.0987849358974359,10.090432179487179,-0.07803061993932169,0.035153726389045944,-0.06551376281594926,0.9603102981228866,0.008839596991046634,-0.003367867856594398,0.2787734749043912,30.75
2.400,0.19487573717948717,0.17871092948717948,9.625244935897435,-0.06631271114297303,-0.025566346464760685,-0.11211908189233592,0.9606209856090026,0.008887811667310917,-0.004039971554418153,0.27769048856810774,30.75
2.420,0.5047012179487179,0.5397249679487179,9.798567596153845,0.1408812216651917,-0.01597896654047543,0.083889574337496,0.9605747880863598,0.012062276082801294,-0.0046738073493718035,0.2777206033289722,30.75
2.440,-0.2290014423076923,-0.20206009615384612,9.826406987179487,0.10679275971217746,0.009587379924285258,0.22503711211169564,0.9599425930416631,0.012412243478361755,-0.004146960649700634,0.2798909734050956,30.75
2.461,0.045800288461538455,-0.41310064102564104,9.717743557692307,0.004527373853134705,0.011984224905356573,0.18375811521546745,0.9594261672422714,0.012053842809650075,-0.004594698031852381,0.2816647355178164,30.75
2.481,0.045800288461538455,-0.41310064102564104,9.717743557692307,0.004527373853134705,0.011984224905356573,0.18375811521546745,0.9594261672422714,0.012053842809650075,-0.004594698031852381,0.2816647355178164,30.75
2.501,-0.2074483653846154,0.5980978846153846,9.825508942307692,0.05752427954571154,0.02024002428460221,-0.16831178089300786,0.9599478604730779,0.012881716528932692,-0.004170942235573239,0.2798513351643976,30.75
2.521,-0.2074483653846154,0.5980978846153846,9.825508942307692,0.05752427954571154,0.02024002428460221,-0.16831178089300786,0.9599478604730779,0.012881716528932692,-0.004170942235573239,0.2798513351643976,30.75
2.541,-0.20834641025641026,0.6385099038461538,9.394447403846154,0.031691616971942935,0.04261057744126781,-0.1307612095228906,0.9603099511860003,0.013444568900809936,-0.00311159546828645,0.278593537602463,30.75
2.561,-0.1454832692307692,0.06196509615384615,9.927886057692307,-0.059654808417774936,0.061252705071822476,0.013049489341388268,0.9602913239811746,0.012205900933635766,-0.0022548246565637533,0.2787229894261494,30.75
2.582,-0.03592179487179487,-0.1840991987179487,10.271837243589744,-0.09667274756987634,-0.0021305288720633907,0.12037488127158157,0.9599731820570571,0.010622483113679124,-0.0025150543743406107,0.27987912942061655,30.75
2.602,0.49123054487179485,0.17062852564102562,9.327094038461537,-0.07456851052221868,-0.11398329465539139,0.09374327037078918,0.9597085259292393,0.010397354148079786,-0.004464451304390094,0.28076949435434884,30.75
2.622,0.7193339423076923,0.3502375,9.772524294871795,-0.011185276578332801,-0.10492854694912199,-0.018375811521546742,0.9597480817152607,0.010950118775790168,-0.006050814543809367,0.2805835030539566,30.75
2.642,0.28468022435897433,0.2191229487179487,9.794975416666666,0.029561088099879545,-0.01251685712337242,-0.07749798772130582,0.9599526294475976,0.011689348119477031,-0.006591818752101241,0.27984076951495923,30.75
2.662,-0.1589539423076923,0.11045951923076923,9.754563397435897,0.007723167161229791,0.0503337446024976,-0.04926848016646591,0.9601006643844437,0.011315377999534222,-0.005499098655453668,0.2793715024537311,30.75
2.682,-0.13560477564102563,0.12123605769230768,9.915313429487178,-0.041278996896228194,0.05539375067364816,-0.019174759848570515,0.9601689093929272,0.010454525112176085,-0.004498378344688844,0.2791883466983244,30.75
2.702,-0.0700475,0.22361317307692305,9.717743557692307,-0.025832662573768612,0.01944107595757844,-0.014114753777419962,0.9602165297698183,0.01012841013603414,-0.0037228775307268113,0.27904797338059123,30.75
2.722,0.24516625,0.19487573717948717,9.74199076923077,0.006125270507182248,-0.02210423704765768,-0.01384843766841204,0.9602469109090375,0.010561173762262828,-0.004498206611952168,0.27891593327684006,30.75
2.743,0.391547564102564,0.265821282051282,9.66475891025641,0.019707392066586362,-0.026897927009800305,-0.015712650431467506,0.9602796185664988,0.011220596833285511,-0.005228783690766621,0.2787647972639294,30.75
2.763,0.3376648717948718,0.29725285256410255,9.79766955128205,0.02157160482964183,-0.006125270507182248,-0.010918960469324876,0.9602988028096228,0.011943091899898506,-0.005659322878113242,0.27866026617161815,30.75
2.783,0.02065503205128205,-0.1014790705128205,9.779708653846154,0.047137951294402514,0.01944107595757844,0.018908443739562592,0.9601949656811439,0.011787838713789172,-0.004895342924029301,0.2790389047367781,30.75
2.803,-0.1014790705128205,0.12842041666666668,9.811140224358974,0.04074636467821235,0.03142530086293501,0.049801112384481754,0.9600713126569768,0.011739761682821748,-0.003972506712209523,0.2794807181169419,30.75
2.823,0.03502375,0.2864763141025641,9.809344134615385,0.011984224905356573,0.010652644360316953,0.027963191445832,0.9600593032740127,0.012063297805386383,-0.0033901634786255522,0.2795158632969945,30.75
2.843,0.03502375,0.2864763141025641,9.809344134615385,0.011984224905356573,0.010652644360316953,0.027963191445832,0.9600593032740127,0.012063297805386383,-0.0033901634786255522,0.2795158632969945,30.75
2.864,0.16703634615384613,0.1814050641025641,9.711457243589743,-0.002929477199087162,-0.011185276578332801,-0.008255799379245638,0.9601405746914544,0.011866641133968773,-0.004899961972141227,0.27922258152239954,30.75
2.884,0.1365028205128205,0.13740086538461538,9.800363685897436,0.0021305288720633907,0.0015978966540475428,0.014114753777419962,0.9601076669575154,0.01122312512896174,-0.004845025149840381,0.2793632671684556,30.75
2.904,0.06735336538461538,0.27569977564102566,9.710559198717949,0.007456851052221867,0.004527373853134705,0.00692421883420602,0.9600885557238849,0.01162759587259739,-0.004219446816551554,0.2794225482147259,30.75
2.924,0.15087153846153847,0.20565227564102562,9.602793814102563,0.004527373853134705,0.0021305288720633907,-0.002663161090079238,0.9600874476197516,0.01227988421928852,-0.004425695224617962,0.2793952587076785,30.75
2.944,0.1778128846153846,0.1975698717948718,11.971836185897436,-0.0023968449810713144,0.031158984753927088,0.00026631610900792384,0.9600940741826489,0.011519819204219189,-0.004246586342918854,0.27940763946123004,30.75
2.964,-0.9932376282051282,0.28288413461538464,10.382296762820513,0.04101268078722027,-0.01864212763055467,-0.027430559227816155,0.9601710513626996,0.011825913257431,-0.0036631392080626857,0.27913846261634756,30.75
2.984,-1.1593759294871795,0.5927096153846153,10.607706025641024,0.22397184767566394,-0.34727620614633264,-0.1051948630581299,0.9604227793510893,0.014946968103432257,-0.005699994003600078,0.2780866467783067,30.75
3.005,0.24247211538461536,0.08800839743589742,8.954405416666665,0.47990162843227874,-0.6801713424062374,-0.17736652859927726,0.9607732549672697,0.02097093037601917,-0.01131742412809804,0.2763094072409888,30.75
3.025,0.7157417628205128,0.49841490384615383,9.848858108974358,0.545415391248228,-0.8908273846315051,-0.21624868051443413,0.9610785624119458,0.02910825198414232,-0.0188359686825861,0.2740910666592474,30.75
3.046,1.1943996794871794,0.273005641025641,8.856518525641025,0.4372910509910109,-0.926513743238567,-0.23808660145308388,0.9613521429104616,0.03595739497501032,-0.02712655693800757,0.27161235792350086,30.75
3.066,1.154885705128205,0.01616480769230769,9.310031185897435,0.3675162304309349,-0.7827030443742881,-0.24900556192240877,0.9616315204864649,0.04135554030322671,-0.03413451147979288,0.26905273315681755,30.75
3.086,1.0354457371794872,0.5352347435897435,9.233697371794872,0.3129214280843105,-0.6671218530648492,-0.24234765919721069,0.9618623353786393,0.04631985001878017,-0.040258193642074724,0.26656068186974813,30.75
3.106,1.5150016987179487,1.0138926602564102,9.289376153846153,0.2402171303251473,-0.5235774703095782,-0.23995081421613937,0.9621187579829331,0.05062024383772551,-0.044963831575534664,0.26408964444149324,30.75
3.127,1.456628782051282,0.7310085256410256,9.221124743589742,0.16831178089300786,-0.40533311791006005,-0.22210763491260846,0.9623799474557361,0.053649422744298306,-0.04891354808843657,0.2618282662122226,30.75
3.147,1.4548326923076922,0.5819330769230768,9.360321698717948,0.0860201032095594,-0.2974750937618509,-0.18801917295959422,0.9626387188333007,0.05520961114112042,-0.052091582427073894,0.25993280454931295,30.75
3.167,1.6748536858974359,0.8980448717948717,9.208552115384615,-0.016777914867499202,-0.14993596937146111,-0.1621865103858256,0.9629385035304207,0.05588292349394859,-0.05403054077327382,0.258277443738533,30.75
3.187,1.6146846794871794,0.862123076923077,9.768932115384615,-0.09640643146086843,-0.019707392066586362,-0.16698020034796823,0.9633603097348638,0.055407628468334594,-0.05494709146727512,0.256608116540279,30.75
3.208,1.2707334935897436,0.629529455128205,9.51927564102564,-0.1565938720966592,0.03994741635118857,-0.17816547692630103,0.9639444398586632,0.05324174857751046,-0.05492011078878949,0.25487293796110333,30.75
3.228,1.2159527564102564,0.6421020833333333,9.66296282051282,-0.24794029748637708,0.06897587223305227,-0.1832254829974516,0.9646174761434565,0.050206205387605944,-0.054473907124376386,0.2530317274608275,30.875
3.248,1.0462222756410255,0.5900154807692307,9.850654198717947,-0.2641855801358604,0.07163903332313151,-0.20612866837213303,0.9653517310232226,0.0472038242667186,-0.053821762065017105,0.25094033616236605,30.875
3.268,0.8666133012820513,0.7220280769230769,9.612672307692307,-0.2223739510216164,0.031691616971942935,-0.20985709389824397,0.9660374346803561,0.045097400384512924,-0.05331993246622759,0.2487868245638276,30.875
3.289,1.071367532051282,0.798361891025641,9.623448846153845,-0.21518341607840244,0.018908443739562592,-0.18881812128661798,0.9666295978596422,0.04349894593737999,-0.05308621838110479,0.24681352406632245,30.875
3.309,1.288694391025641,0.36011599358974355,9.678229583333334,-0.21971078993153714,0.0458063707493629,-0.18615496019653874,0.9672222495795986,0.0407045385588335,-0.05310748916493644,0.24495684324690611,30.875
3.329,1.0022180769230769,0.3367668269230769,9.80665,-0.220243422149553,0.05193164125654515,-0.18642127630554667,0.9678349354877663,0.03826361850111768,-0.05247959701240509,0.2430582750000661,30.875
3.350,0.7884833974358975,0.532540608974359,9.716845512820512,-0.1366201639210649,0.05406217012860853,-0.167779148674992,0.968358543004884,0.036959715799102795,-0.051571443743154644,0.2413630000388512,30.875
3.370,0.8324875961538462,0.8001579807692307,9.637817564102564,0.002663161090079238,0.036751623043093484,-0.09214537371674164,0.9685979352807897,0.03755724671546022,-0.05093483449818359,0.2404436225471323,30.875
3.390,1.351557532051282,0.8001579807692307,9.80126173076923,0.08229167768344846,0.02769687533682408,0.002663161090079238,0.9685472050368035,0.038911725641168814,-0.05066507422505229,0.2404895828862293,30.875
3.410,1.3488633974358974,0.18948746794871796,9.775218429487179,0.043675841877299504,0.011451592687340724,0.07217166554114736,0.9683459825330086,0.03881368391088211,-0.05095139156126553,0.2412540398654891,30.875
3.431,1.1656622435897435,0.32599028846153844,9.676433493589743,-0.04101268078722027,-0.0037284255261109335,0.08868326429963863,0.9681467488713074,0.037765753448641276,-0.05135662220135696,0.24213243870337023,30.875
3.451,1.0489164102564101,0.3753827564102564,9.588425096153845,-0.0692421883420602,-0.033555829734998405,0.04447479020432328,0.9680803414369462,0.03658812510579139,-0.05153706044635482,0.2425400853985122,30.875
3.471,1.2428941025641025,0.43195958333333334,9.565075929487179,-0.07749798772130582,-0.019973708175594285,-0.019707392066586362,0.9681050535785414,0.035994908582108825,-0.052558163413900766,0.24231098045778451,30.875
3.492,1.12076,0.1715265705128205,9.670147179487179,-0.1027980180770586,0.029561088099879545,-0.08362325822848808,0.9683694947554137,0.03431720746779794,-0.0525502891274562,0.24149807040922244,30.875
3.512,1.0354457371794872,0.07902794871794872,9.746480993589744,-0.14913702104443735,0.0615190211808304,-0.13875069279312832,0.9688030710741773,0.03214573754700576,-0.05218487177213331,0.24013329671856778,30.875
3.532,0.9231901282051281,0.4822500961538461,9.52466391025641,-0.18615496019653874,0.06391586616190172,-0.195742340120824,0.9693949390902663,0.0305036085021847,-0.05132819326376549,0.2381352525578728,30.875
3.553,1.0668773076923077,0.7175378525641025,9.940458685897434,-0.19254654681272892,0.03195793308095086,-0.2567287290836386,0.9700828688176885,0.029288320550569246,-0.05111706724917041,0.23551744593896742,30.875
3.573,0.846856314102564,0.440940032051282,9.756359487179488,-0.1664475681299524,-0.09134642538971786,-0.35260252832649114,0.9709426911477631,0.028193214605452644,-0.05164725795440883,0.23196550153577,30.875
3.593,0.9546216987179487,0.16973048076923078,9.815630448717949,-0.18349179910645952,-0.27963191445832003,-0.5025384976979522,0.9720293364203229,0.02679868100363374,-0.054247815558179265,0.22693165125627152,30.875
3.614,1.1728466025641024,0.3188059294871795,9.5965075,-0.2697782184250268,-0.4157194461613691,-0.6716492269179839,0.9733436279763787,0.02609769323707566,-0.05894900766393279,0.22010476319453456,30.875
3.634,1.3686203846153846,0.32060201923076925,9.69978266025641,-0.3374225101130395,-0.5054679748970394,-0.8333031050857936,0.9748778597438958,0.0248615411706747,-0.06486852450063217,0.2116297164409827,30.875
3.654,1.462915096153846,0.17242461538461537,9.70876310897436,-0.339020406767087,-0.6785734457521899,-0.9856359194383261,0.9780022846306667,0.022320132987027803,-0.07843480719803451,0.19199303096843132,30.875
3.674,1.462915096153846,0.17242461538461537,9.70876310897436,-0.339020406767087,-0.6785734457521899,-0.9856359194383261,0.9780022846306667,0.022320132987027803,-0.07843480719803451,0.19199303096843132,30.875
3.694,1.603908141025641,0.2676173717948718,9.921599743589743,-0.4133226011802978,-0.7214503393024656,-0.9821738100212231,0.9793282843711846,0.02082419869270559,-0.08598195458944406,0.18190538107592624,30.875
3.715,1.5347586858974358,-0.4157947756410256,9.678229583333334,-0.43223104491986036,-0.7456851052221867,-0.9539443024663832,0.980373919505355,0.018326970367465452,-0.09374562321657064,0.17246117893193977,30.875
3.735,2.4974627884615384,0.2263073076923077,9.38277282051282,-0.4316984127018445,-0.6412891904910806,-0.6370281327469538,0.9812064492653427,0.013462459718764811,-0.10859608082946917,0.15893255590626665,30.875
3.755,2.4974627884615384,0.2263073076923077,9.38277282051282,-0.4316984127018445,-0.6412891904910806,-0.6370281327469538,0.9812064492653427,0.013462459718764811,-0.10859608082946917,0.15893255590626665,30.875
3.775,2.638455833333333,-0.5549917307692307,9.416898525641026,-0.45087317255041504,-0.5198490447834673,-0.402137324601965,0.9811863319152461,0.009865154811373684,-0.11434626281220923,0.15524494505179104,30.875
3.795,2.7560997115384613,-0.31251961538461537,9.432165288461539,-0.5190500964564435,-0.29055087492764486,-0.2804308627853438,0.9812776839276126,0.000929404707419163,-0.12268774115370341,0.1484619863909691,30.875
3.815,2.7560997115384613,-0.31251961538461537,9.432165288461539,-0.5190500964564435,-0.29055087492764486,-0.2804308627853438,0.9812776839276126,0.000929404707419163,-0.12268774115370341,0.1484619863909691,30.875
3.836,2.351979519230769,-0.44004198717948717,9.337870576923075,-0.5648564672058064,-0.15393071100657996,-0.3043993125960569,0.981536394604301,-0.004480545772710663,-0.12480594691682627,0.14487824678316247,30.875
3.856,2.1319585256410254,-0.5792389423076922,9.646798012820511,-0.4972121755177938,-0.08841694819063071,-0.2913498232546687,0.981820259158439,-0.008588421548697234,-0.12592524059717566,0.14176759679807402,30.875
3.876,2.443580096153846,-0.45081852564102565,9.289376153846153,-0.24181502697919482,-0.25193503912149595,-0.12783173232380343,0.9816372800657115,-0.012657782235812617,-0.13121201700613472,0.1378819695509336,30.875
3.896,2.443580096153846,-0.45081852564102565,9.289376153846153,-0.24181502697919482,-0.25193503912149595,-0.12783173232380343,0.9816372800657115,-0.012657782235812617,-0.13121201700613472,0.1378819695509336,30.875
3.916,2.7803469230769227,-0.791177532051282,9.286682019230769,-0.25086977468546423,-0.2338255437089571,-0.09747169589690012,0.9813416346480172,-0.014926934581034305,-0.1344445551837377,0.1366398342790934,30.875
3.937,2.629475384615384,-0.7543576923076923,9.257944583333332,-0.37816887479125183,-0.12809804843281136,-0.20639498448114096,0.9810859593658272,-0.0217853704893832,-0.13939565306925822,0.1325314674832734,30.875
3.957,2.629475384615384,-0.7543576923076923,9.257944583333332,-0.37816887479125183,-0.12809804843281136,-0.20639498448114096,0.9810859593658272,-0.0217853704893832,-0.13939565306925822,0.1325314674832734,30.875
3.977,2.7138916025641024,-0.8917585576923076,9.048700128205128,-0.3768372942462122,-0.09880327644193974,-0.27563717282320116,0.981121833319348,-0.028765107449113116,-0.14366526714908273,0.12622522645060033,30.875
3.997,2.7138916025641024,-0.8917585576923076,9.048700128205128,-0.3768372942462122,-0.09880327644193974,-0.27563717282320116,0.981121833319348,-0.028765107449113116,-0.14366526714908273,0.12622522645060033,30.875
4.017,2.6752756730769227,-0.9483353846153846,9.453718365384615,-0.4045341695830363,-0.0346210941710301,-0.25592978075661477,0.9813021810414271,-0.03281254498468952,-0.14416573779650643,0.12322989256083533,30.875
4.037,2.479501891025641,-1.0686733974358973,9.409714166666667,-0.4202468200145038,0.029028455881863695,-0.23728765312606012,0.9815484242170059,-0.036941435221538255,-0.14391802537450696,0.12035623479150614,30.875
4.058,2.4732155769230766,-1.092022564102564,9.416898525641026,-0.3866909902795054,0.004793689962142629,-0.2213086865855847,0.9817428770872783,-0.040613679042772,-0.1438124313511622,0.11768363077281088,30.875
4.078,2.7803469230769227,-1.2213410256410255,9.222022788461539,-0.2988066743068905,-0.09347695426178126,-0.20373182339106172,0.981622997111867,-0.046897941836772164,-0.1465166464065756,0.11291477723646644,30.875
4.098,2.8135745833333328,-1.2348116987179487,9.250760224358974,-0.26684874122593966,-0.11211908189233592,-0.21518341607840244,0.9814789742406624,-0.04909316105249479,-0.14864366517261243,0.1104261991803723,30.875
4.118,2.8135745833333328,-1.2348116987179487,9.250760224358974,-0.26684874122593966,-0.11211908189233592,-0.21518341607840244,0.9814789742406624,-0.04909316105249479,-0.14864366517261243,0.1104261991803723,30.875
4.138,2.7210759615384617,-1.3668242948717948,9.236391506410255,-0.2532666196665356,-0.10972223691126462,-0.2303634342918541,0.9813038457767216,-0.054208673144008956,-0.15154411896758796,0.10553938613674003,30.875
4.158,2.7210759615384617,-1.3668242948717948,9.236391506410255,-0.2532666196665356,-0.10972223691126462,-0.2303634342918541,0.9813038457767216,-0.054208673144008956,-0.15154411896758796,0.10553938613674003,30.875
4.179,2.673479583333333,-1.288694391025641,9.34774907051282,-0.3062635253591124,-0.09747169589690012,-0.3408846195301425,0.9814161862782568,-0.058076818065083295,-0.15399113931970385,0.09867158418459065,30.875
4.199,2.673479583333333,-1.288694391025641,9.34774907051282,-0.3062635253591124,-0.09747169589690012,-0.3408846195301425,0.9814161862782568,-0.058076818065083295,-0.15399113931970385,0.09867158418459065,30.875
4.219,2.912359519230769,-1.3713145192307692,9.34954516025641,-0.3057308931410965,-0.22849922152879865,-0.5025384976979522,0.9814927149183817,-0.06128447560032992,-0.15829079049929867,0.08865827234750215,30.875
4.239,2.980610929487179,-1.428789391025641,9.003797884615384,-0.3243730207716512,-0.2940129843447479,-0.5339637985608873,0.9811807528350462,-0.06335184950221781,-0.16240742132269959,0.08303434789297477,30.875
4.259,2.980610929487179,-1.428789391025641,9.003797884615384,-0.3243730207716512,-0.2940129843447479,-0.5339637985608873,0.9811807528350462,-0.06335184950221781,-0.16240742132269959,0.08303434789297477,30.875
4.279,2.9348106410256407,-1.5105114743589743,9.084621923076924,-0.3446130450562534,-0.29614351321681126,-0.5462143395752518,0.9809353556842464,-0.06610499391472456,-0.1655393106328938,0.07741249500785748,30.875
4.300,3.321867980769231,-1.8814040064102564,9.122339807692308,-0.41625207837938494,-0.07110640110511567,-0.4679174035269221,0.9804707591496734,-0.07311822769271953,-0.16995538678263833,0.06667819534977436,30.875
4.320,3.321867980769231,-1.8814040064102564,9.122339807692308,-0.41625207837938494,-0.07110640110511567,-0.4679174035269221,0.9804707591496734,-0.07311822769271953,-0.16995538678263833,0.06667819534977436,30.875
4.340,3.1189098397435893,-1.6766497756410255,8.89782858974359,-0.41944787168748,-0.01038632825130903,-0.43063314826581284,0.9803277856631524,-0.07708369521535603,-0.17085778191857431,0.06183166621231762,30.875
4.360,3.2832520512820507,-1.6721595512820513,9.10258282051282,-0.3552656894165704,0.0015978966540475428,-0.4042678534740284,0.9802036378249922,-0.07972352671600892,-0.17197483814179407,0.05718078985740872,30.875
4.380,3.242840032051282,-1.4656092307692306,9.10258282051282,-0.2583266257376861,0.051665325147537224,-0.35846148272466544,0.980324993975216,-0.0827438898844563,-0.17245484471727854,0.048740962319400255,30.875
4.400,3.242840032051282,-1.4656092307692306,9.10258282051282,-0.2583266257376861,0.051665325147537224,-0.35846148272466544,0.980324993975216,-0.0827438898844563,-0.17245484471727854,0.048740962319400255,30.875
4.421,3.331746474358974,-1.6820380448717949,9.04331185897436,-0.24873924581340084,0.049801112384481754,-0.3265035496437146,0.9803005254980025,-0.08427710844832877,-0.17287839858481327,0.04495895909247999,30.875
4.441,3.199733878205128,-1.770944487179487,9.02175878205128,-0.22956448596483034,0.06018744063579078,-0.2077265650261806,0.9802923874359198,-0.08805103005542758,-0.17241295008983457,0.039339876495521224,30.875
4.461,3.074905641025641,-1.7646581730769229,9.131320256410255,-0.19441075957578438,0.0636495500528938,-0.1821602185614199,0.9804160753419604,-0.08948273235905338,-0.17144777297825547,0.03718630072247249,30.875
4.481,2.978814839743589,-1.7413090064102563,9.099888685897435,-0.17843179303530896,0.0513990090385293,-0.18588864408753084,0.9805295011380305,-0.09065938526229503,-0.17063575234813386,0.03501732831690879,30.875
4.501,2.844108108974359,-1.6461162499999997,9.242677820512819,-0.22210763491260846,0.008255799379245638,-0.20080234619197457,0.9805252989743305,-0.09230884946961056,-0.1702376229933124,0.03268587001264542,30.875
4.521,2.8557826923076925,-1.8814040064102564,9.197775576923076,-0.27883296613129627,-0.0615190211808304,-0.26551716068090003,0.9803480155128426,-0.09456604186916022,-0.17056232390265852,0.02972416306906178,30.875
4.541,3.164710128205128,-2.408556346153846,9.026249006410255,-0.3440804128382376,-0.09986854087797144,-0.35606463774359415,0.9798462485069683,-0.09787827603748314,-0.1722052609382005,0.025817057771116345,30.875
4.562,3.416162692307692,-2.638455833333333,8.633803397435896,-0.42770367106672563,-0.05379585401960061,-0.42184471666855133,0.979317849686657,-0.10187164629430387,-0.17353669542866532,0.021064954452577223,30.875
4.582,3.4772297435897435,-2.423823108974359,8.563755897435897,-0.5185174642384277,0.03382214584400633,-0.4735100418160886,0.9788003565483636,-0.10636171731057024,-0.17434901417576526,0.015474765506504725,30.875
4.602,3.6397758653846153,-1.8679333333333332,8.724505929487178,-0.5776396404381867,0.14940333715344525,-0.5422195979401329,0.978427537058042,-0.11082637616191969,-0.1741206576046807,0.008891887800921495,30.875
4.622,3.536500705128205,-1.724246153846154,8.95889564102564,-0.5491438167743389,0.2564624129746306,-0.5992112452678285,0.978299333796296,-0.11459990076977837,-0.1726109606404992,0.0016530287488517811,30.875
4.642,3.3488093269230768,-1.6982028525641024,9.14838310897436,-0.4548679141855339,0.2985403581978826,-0.5483448684473151,0.9783493691008305,-0.11747607827374557,-0.17031553812480074,-0.004949796630917828,30.875
4.662,3.0632310576923074,-1.7978858333333332,9.397141538461538,-0.3227751241176037,0.24847292970439291,-0.3712446559570458,0.9784776775848802,-0.11947661935308142,-0.1679791375279804,-0.009475296903735539,30.875
4.682,2.801001955128205,-2.2810339743589743,9.178916634615383,-0.15472965933360375,0.12809804843281136,-0.1352885833760253,0.9785996575409931,-0.12073149325022542,-0.16626025065006061,-0.011142075749200921,30.875
4.703,2.983305064102564,-2.2298454166666666,9.090010192307693,0.009321063815277334,-0.010918960469324876,0.07004113666908396,0.9787192600789606,-0.12059959271666766,-0.1657000879480735,-0.010384076322261165,30.875
4.723,3.249126346153846,-2.240621955128205,8.882561826923077,0.11132013356531216,-0.11877698461753403,0.17257283863713463,0.9785839103491003,-0.11967091271121606,-0.16727446333914922,-0.00846504408305861,30.875
4.743,3.415264647435897,-2.3142616346153844,8.780184711538462,0.1611212459497939,-0.15739282042368297,0.18429074743348328,0.9784023108967391,-0.11861728126752961,-0.1691743020808504,-0.006238119274079449,30.875
4.763,3.3290523397435896,-2.3340186217948715,8.79275733974359,0.1510012338074928,-0.12436962290670042,0.15073491769848488,0.978252312719912,-0.11781915785061964,-0.17065233909905725,-0.004340260537652997,30.875
4.784,3.2832520512820507,-2.3016890064102564,8.83316935897436,0.07510114274023452,-0.05645901510967985,0.08362325822848808,0.9781380304936736,-0.11817376606617902,-0.1710737363044508,-0.0038381066332939225,30.875
4.804,3.2365537179487176,-2.2998929166666664,8.896930544871795,-0.01944107595757844,0.011717908796348648,-0.008522115488253563,0.9781178600354059,-0.11921216635162103,-0.17045675876085284,-0.004290065996700676,30.875
4.824,3.1467492307692306,-2.246010224358974,8.99571548076923,-0.07962851659336923,0.05486111845563231,-0.06950850445106811,0.9782358391607374,-0.11979879865362672,-0.1693384265746767,-0.005233364868669668,30.875
4.844,3.1162157051282047,-2.1517155128205125,9.0361275,-0.07882956826634545,0.06258428561686209,-0.07536745884924244,0.9783768480424048,-0.1198795170527315,-0.1684381015914008,-0.006020841975845097,30.875
4.864,3.0901724038461538,-2.142735064102564,9.056782532051281,-0.03568635860706179,0.03808320358813311,-0.04154531300523612,0.9785186051801195,-0.1195662323166514,-0.16782804594665116,-0.006245190123824815,30.875
4.884,3.2248791346153842,-2.1948216666666664,8.937342564102563,0.007989483270237714,-0.001331580545039619,0.005060006071150552,0.9785819247412769,-0.11877622232469333,-0.16802495443856832,-0.0061024803031095075,30.875
4.904,3.2248791346153842,-2.1948216666666664,8.937342564102563,0.007989483270237714,-0.001331580545039619,0.005060006071150552,0.9785819247412769,-0.11877622232469333,-0.16802495443856832,-0.0061024803031095075,30.875
4.924,3.300314903846154,-2.2226610576923074,8.922973846153846,0.022370553156665602,-0.023169501483689372,0.023169501483689372,0.9783979393069462,-0.11808141387381633,-0.1695911305172751,-0.00575330403805156,30.875
4.945,3.2167967307692305,-2.259480897435897,8.952609326923076,0.008522115488253563,-0.005326322180158476,0.01038632825130903,0.978476741685118,-0.11831302907680667,-0.1689792821381934,-0.005594223807321079,30.875
4.965,3.127890288461538,-2.2567867628205125,8.971468269230769,-0.0031957933080950856,0.007456851052221867,0.0007989483270237714,0.9785867350273324,-0.11840740357293071,-0.16827656674522312,-0.005539484822897652,30.875
4.985,3.214102596153846,-2.2047001602564102,8.914891442307692,-0.0031957933080950856,0.007456851052221867,0.00026631610900792384,0.9786857755741633,-0.11776605188328124,-0.1681488898521731,-0.005591113851868528,30.875
5.005,3.268883333333333,-2.122978076923077,9.008288108974359,0.014114753777419962,-0.00026631610900792384,0.013582121559404114,0.978765869905443,-0.11690653903896306,-0.16828889684791917,-0.0053926093761173894,30.875
5.026,3.2931305448717945,-1.9730045833333334,8.993021346153846,0.04527373853134705,-0.011984224905356573,0.044741106313331204,0.978861196776091,-0.11577166778200909,-0.16853881969749257,-0.004727011743935354,30.875
5.046,3.2931305448717945,-1.9730045833333334,8.993021346153846,0.04527373853134705,-0.011984224905356573,0.044741106313331204,0.978861196776091,-0.11577166778200909,-0.16853881969749257,-0.004727011743935354,30.875
5.066,3.1898553846153845,-2.091546506410256,8.99930766025641,0.14700649217237394,-0.07163903332313151,0.2034655072820538,0.9791440799946691,-0.11272485593895282,-0.1690231512321965,-0.001073225266843593,30.875
5.086,3.2742716025641023,-2.0080283333333333,8.954405416666665,0.20080234619197457,-0.09773801200590804,0.25885925795570197,0.9792383159096222,-0.11058405112974756,-0.16988322122310334,0.001783097608790707,30.875
5.106,3.3048051282051283,-1.9577378205128204,8.964283910256409,0.27776770169526455,-0.11904330072654194,0.3030677320510173,0.9793561226427587,-0.10777359533688616,-0.17093608164453764,0.005224287732795155,30.875
5.127,3.32546016025641,-1.968514358974359,8.889746185897435,0.36352148879581603,-0.1352885833760253,0.35952674716069716,0.9793999885550475,-0.10463369128086145,-0.17244955473055792,0.009412977241369573,30.875
5.147,3.276965737179487,-2.144531153846154,8.838557628205129,0.443948953716209,-0.1430117505372551,0.41199102063525816,0.9794529214795603,-0.10152512869695551,-0.17365627132525213,0.01442644369314629,30.875
5.167,3.3506054166666663,-2.140938974358974,9.000205705128204,0.5472796040112835,-0.1230380423616608,0.4138552333983136,0.9796389494343972,-0.09659148387306782,-0.17492707091431,0.01944566418535211,30.875
5.187,3.3110914423076925,-1.700896987179487,9.028045096153845,0.6271744367136606,-0.09267800593475749,0.39974047962089365,0.9800460210554238,-0.0904938307176122,-0.17528063931088556,0.024440963529518488,30.875
5.207,3.321867980769231,-1.2294234294871793,9.080131698717949,0.5989449291588207,-0.10253170196805067,0.4554005464035497,0.980325562447126,-0.08475630501749208,-0.17573328946928807,0.02993278043903207,30.875
5.227,3.389221346153846,-1.665873237179487,9.070253205128205,0.5459480234662438,-0.13928332501114415,0.5619269900067193,0.9802748377941822,-0.08097766670704305,-0.17652976136685003,0.036621076363699226,30.875
5.248,3.313785576923077,-2.289116378205128,8.851130256410256,0.545415391248228,-0.13715279613908077,0.6239786434055655,0.9801461986449643,-0.0773139401026858,-0.17722120901191252,0.0439161362597013,30.875
5.268,3.313785576923077,-2.289116378205128,8.851130256410256,0.545415391248228,-0.13715279613908077,0.6239786434055655,0.9801461986449643,-0.0773139401026858,-0.17722120901191252,0.0439161362597013,30.875
5.288,3.0174307692307694,-1.231219519230769,9.348647115384615,0.6322344427848111,-0.037816887479125184,0.46232476523775573,0.9804893072145061,-0.06695229562720352,-0.17600673822336302,0.05638915364002267,30.875
5.308,3.2446361217948714,-0.9662962820512819,9.261536762820512,0.6231796950785418,-0.04394215798630743,0.3933488930047035,0.9806524805155599,-0.06089144468578374,-0.1756653006277644,0.06127517097581,30.875
5.328,3.179078846153846,-1.2096664423076924,9.103480865384615,0.5581985644806083,-0.09933590865995559,0.4372910509910109,0.9806235831145906,-0.05562312694405548,-0.1756571021746064,0.06654350790337785,30.875
5.349,3.081191955128205,-1.8239291346153845,9.14479092948718,0.552339610082434,-0.16165387816780977,0.5440838107031883,0.9802514893806852,-0.051665470222244984,-0.17635235851116945,0.073058486168349,30.875
5.369,3.188059294871795,-1.5347586858974358,9.143892884615385,0.6415555066000885,-0.1821602185614199,0.5962817680687414,0.9797868519598442,-0.046904808992564974,-0.17713842657464965,0.08024737659666552,30.875
5.389,3.166506217948718,-1.030057467948718,9.206756025641026,0.7110640110511566,-0.16831178089300786,0.5550027711725133,0.9794431305007795,-0.04041153662183625,-0.17745812111295367,0.08698664882472139,30.875
5.410,3.4179587820512816,-1.0129946153846152,9.185202948717949,0.7344998286438539,-0.14807175660840563,0.49987533660787303,0.9789595988941958,-0.03346685114309523,-0.1784516207544808,0.09312944033752231,30.875
5.430,3.3389308333333334,-0.9088214102564103,8.881663782051282,0.7193198104304023,-0.14221280221023133,0.5254416830726337,0.9783341269826401,-0.026926096463073698,-0.1795372689811751,0.09951728672526255,30.875
5.450,3.3245621153846154,-0.5469093269230769,8.89064423076923,0.7456851052221867,-0.1576591365326909,0.5933522908696542,0.9776401055371254,-0.01988978011462654,-0.1801790947196615,0.10658196150546992,30.875
5.470,3.5607479166666662,-0.09339666666666667,8.991225256410255,0.8282430990146431,-0.14168016999221547,0.6428870871451281,0.9768082953802907,-0.012163327275300546,-0.180671035898691,0.11426103593587283,30.875
5.491,3.4853121474358972,-0.5540936858974359,9.625244935897435,0.9163937310962659,-0.11451592687340724,0.7251787648285766,0.975915297763658,-0.003999835877054703,-0.180155294236937,0.12295284812573512,30.875
5.511,2.774060608974359,-1.7466972756410255,9.671045224358974,0.8945558101576161,-0.13555489948503321,0.849548387735277,0.9746265103221381,0.002792980623550653,-0.18004454747085652,0.13296362496014572,30.875
5.531,2.842312019230769,-0.783095128205128,9.178018589743589,0.6175870567893753,-0.17816547692630103,0.793622004843613,0.9732611259498044,0.007212519024428511,-0.18049814879789688,0.14188438449940013,30.875
5.551,3.0012659615384614,-0.6196509615384614,9.121441762820513,0.339020406767087,-0.18961706961364175,0.4426173731711694,0.9723302651707213,0.009580802364383398,-0.18141337303768115,0.14687154844346403,30.875
5.571,3.6092423397435898,-0.7328046153846153,9.112461314102564,0.25539714853859896,-0.16138756205880184,0.0916127414987258,0.9718111382273535,0.011560279677814572,-0.182903388301766,0.14830988537100287,30.875
5.592,3.9262521794871796,-0.16075003205128205,8.802635833333333,0.19840550121090325,-0.132891738394954,-0.05486111845563231,0.9715225152122544,0.014039789503228862,-0.1844532238318995,0.14806719746243274,30.875
5.612,4.095084615384615,-0.09070253205128205,8.837659583333332,0.1464738599543581,-0.09640643146086843,-0.04048004856920442,0.9712801120082373,0.01593321045414373,-0.18572598735119264,0.14787472550884018,30.875
5.632,3.8319574679487176,-0.1266243269230769,8.82059673076923,0.19734023677487156,-0.05379585401960061,0.0814927293564247,0.9709234554044402,0.018039778317792195,-0.18652360647775065,0.14896695731027074,30.875
5.652,3.7143135897435893,-0.18679333333333334,9.125033942307692,0.3201119630275244,-0.030626352535911238,0.23329291149094128,0.9703440867406581,0.02094017959508189,-0.18696651878531154,0.1517807071378497,30.875
5.672,3.219490865384615,-0.3565238141025641,9.1762225,0.41971418779648795,-0.035952674716069714,0.3406183034211346,0.9697514189944901,0.024073063016450118,-0.1862448168360343,0.15593441312581025,30.875
5.692,3.168302307692308,-0.01526676282051282,9.308235096153846,0.443948953716209,-0.04261057744126781,0.39414784133172726,0.9690493707671745,0.027734367031643472,-0.18544872611125404,0.16057051997427937,30.875
5.713,3.4466962179487175,0.059270961538461536,9.133116346153846,0.4554005464035497,-0.05219795736555307,0.41784997503343246,0.9682423444496246,0.031734733369565914,-0.1847806001626302,0.16539588542704195,30.875
5.733,3.92266,-0.3879553846153846,9.1762225,0.5081311359871187,-0.10199906975003482,0.45619949473057353,0.9670320630539072,0.03552244322276219,-0.1855094560610113,0.17080218606662326,30.875
5.753,3.635285641025641,0.06196509615384615,8.95350737179487,0.5592638289166401,-0.18935075350463385,0.5392901207410458,0.9655133942624401,0.04089309079221725,-0.18663584785524656,0.17685785512844743,30.875
5.773,3.613732564102564,0.22540926282051282,9.010084198717948,0.6681871175008809,-0.20506340393610134,0.6101302057371535,0.963651941608453,0.047031795823051455,-0.18808320536694928,0.18381418191970814,30.875
5.793,3.6846781089743588,0.17242461538461537,9.221124743589742,0.8119978163651598,-0.08841694819063071,0.6639260597567541,0.9619474592855235,0.053615220020733385,-0.18715939972626716,0.19171294387797053,30.875
5.813,3.300314903846154,0.07543576923076924,9.333380352564102,0.8556736582424592,0.05725796343670362,0.7659251295067889,0.960167124558652,0.05993671024736569,-0.18487766302313724,0.20076586711041458,30.875
5.833,3.5679322756410254,0.19846791666666666,8.984938942307691,0.7693872389238919,0.10945592080225669,0.874315785873014,0.9580005487032021,0.06508722420855031,-0.183289068542273,0.21072190033808946,30.875
5.854,3.9199658653846154,0.40142605769230766,8.868193108974358,0.7297061386817113,0.07882956826634545,0.9238505821484877,0.9555377896120831,0.07021696278233117,-0.18219438908204133,0.22095772298768177,30.875
5.874,3.9882172756410252,0.3906495192307692,9.242677820512819,0.8394283755929759,0.02636529479178446,0.968591688461819,0.9526766487164325,0.07613021871124509,-0.18131509527141568,0.23181076121725366,30.875
5.894,3.4700453846153847,0.3062333012820513,9.412408301282051,0.9419600775610265,-0.012783173232380343,1.0641991715956636,0.9494635316979214,0.0827074886394706,-0.17967588744117213,0.24371099435784452,30.875
5.914,3.4197548717948716,0.8531426282051281,8.71193330128205,0.9297095365466621,-0.0636495500528938,1.1499529586962152,0.9457632261477362,0.08997175476117193,-0.17842133002426164,0.2561304987778593,30.875
5.934,3.738560801282051,0.7857892628205129,8.79275733974359,0.9291769043286462,-0.06844324001503642,1.1270497733215337,0.9417085630938643,0.09730376186975122,-0.1781434190091837,0.268294394994384,30.875
5.955,4.06095891025641,1.252772596153846,8.667929102564102,0.9792443328221359,0.010918960469324876,1.0546117916713784,0.9377685692611466,0.10516307439808759,-0.17668079750944332,0.2798476980081695,30.875
5.975,3.839141826923077,1.3695184294871794,8.742466826923076,1.038100192912887,0.09534116702483673,1.056476004434434,0.9337595812428484,0.11338499819976122,-0.17392823490165304,0.2915233365005553,30.875
5.995,3.6002618910256405,1.2249332051282051,9.543522852564102,1.1544803325493498,0.13954964112015208,1.1006844785297492,0.9293906311838512,0.12212492192693902,-0.16968536227622874,0.30417994007035826,30.875
6.015,3.4053861538461536,1.4449541987179486,9.120543717948717,1.2032161804977999,0.14460964719130262,1.1361045210278031,0.9246894166632249,0.13060129808595955,-0.1657682174725896,0.316881179190635,30.875
6.035,3.67569766025641,1.4889583974358973,8.891542275641026,1.0775149770460597,0.09214537371674164,1.1590077064024844,0.9197528137998885,0.13808955656296848,-0.1631310190962792,0.32920253110211634,30.875
6.056,3.8175887499999996,1.2482823717948717,8.674215416666666,0.9384979681439235,0.00026631610900792384,1.1576761258574448,0.914513970249144,0.14426382235763308,-0.1625873036917138,0.3412001120400922,30.875
6.076,3.8930245192307686,1.2267292948717947,8.701156762820512,0.8937568618305923,-0.08016114881138507,1.1140002839801453,0.9092153320770895,0.15050564709518163,-0.16254761070078216,0.35249653099552003,30.875
6.096,3.9334365384615384,1.3946636858974357,8.945424967948718,0.8791094758351565,-0.1510012338074928,1.0607370621785606,0.9038356469913895,0.1567175007314755,-0.16304287317129898,0.36323239076407277,30.875
6.116,4.016056666666667,1.5482293589743588,8.949017147435896,0.8359662661758729,-0.2767024372592328,1.0468886245101485,0.8981788922958348,0.16301516871120586,-0.16481975702997398,0.3735440802594315,30.875
6.137,3.8597968589743585,1.7907014743589742,8.314997467948718,0.7997472753507953,-0.4093278595451789,1.0359696640408236,0.8923095808978577,0.17068348182629253,-0.16702110991237268,0.3830857733108637,30.875
6.157,3.601159935897436,2.3708384615384612,8.872683333333333,0.8221178285074608,-0.3936152091137114,0.9606022051915812,0.8871565772257681,0.17816549871113063,-0.1670482983890423,0.3915419882457045,30.875
6.177,3.9145775961538463,2.8674572756410255,8.005171987179487,0.8852347463423388,-0.11717908796348649,0.7195861265394101,0.8831774816805564,0.18539149344404543,-0.16429450293585016,0.3982899023525939,30.875
6.197,4.281877948717948,2.050236442307692,8.784674935897435,0.8154599257822628,0.0814927293564247,0.5757754276751313,0.8797761885870684,0.1906255584807783,-0.1608045674656574,0.4047192181392988,30.875
6.218,4.665343108974358,1.400051955128205,8.429947211538462,0.6617955308846907,0.15073491769848488,0.5853628075994165,0.8764593538751851,0.19404798443526047,-0.15834633491362057,0.411206540513073,30.875
6.238,4.620440865384615,1.6021120512820513,8.710137211538461,0.5888249170165195,0.20852551335320435,0.5435511784851725,0.8735068230401088,0.19707656758704467,-0.15545307733862976,0.41711029399480787,30.875
6.258,3.9585817948717947,1.756575769230769,8.653560384615384,0.6037386191209633,0.22849922152879865,0.39627837020379064,0.8710960940988127,0.20021735955921469,-0.15155313213331684,0.4220619053142679,30.875
6.278,3.954989615384615,2.199311891025641,8.757733589743589,0.5616606738977113,0.171241258092095,0.28495823663847847,0.8691608241934934,0.2037047543700349,-0.14772518429956596,0.42572421197060245,30.875
6.298,3.7987298076923075,2.131060480769231,8.561959807692308,0.43622578655497923,0.10226538585904274,0.23648870479903636,0.8675525739800736,0.20634944501962052,-0.14500671981372754,0.4286554433685716,30.875
6.319,3.9262521794871796,2.02958141025641,8.448806153846153,0.3054645770320886,0.04500742242233913,0.2625876834818129,0.8659590872865407,0.20786399433659206,-0.14369794964846366,0.4315765497233674,30.875
6.339,4.644688076923076,2.652824551282051,8.052768365384615,0.28895297827359734,0.054328486237616457,0.2697782184250268,0.8641390430492324,0.21024864182993142,-0.14281225418247595,0.4343545590205611,30.875
6.359,4.368988301282052,2.9572617628205125,8.213518397435896,0.39840889907585403,0.09667274756987634,0.29454561656276373,0.8621129677782495,0.21343242248902977,-0.14069100510599486,0.43750871180047174,30.875
6.379,4.228893301282051,3.074905641025641,8.406598044871794,0.521180625328507,0.2021339267370142,0.3800330875543073,0.8596293935052935,0.2169884372866004,-0.13707443824959098,0.44177360976432195,30.875
6.399,3.84902032051282,3.072211506410256,8.601473782051281,0.5739112149120759,0.3171824858284373,0.5022721815889444,0.856692030017492,0.21995188159575818,-0.13228221723529268,0.44743865556108275,30.875
6.419,3.4960886858974356,2.932116506410256,8.623026858974358,0.5563343517175529,0.3621899082507764,0.6040049352299712,0.8533432757580642,0.22233101661257432,-0.12739243697725025,0.45403231137388556,30.875
6.440,3.696352692307692,2.6788678525641023,8.576328525641026,0.49268480166465906,0.34168356785716625,0.6700513302639364,0.8497450181333949,0.22365426856116855,-0.12339383684263247,0.46117906862855235,30.875
6.460,3.997197724358974,2.2792378846153847,8.621230769230769,0.38695730638851333,0.3097256347762154,0.7030745277809188,0.846000294795089,0.22409511497381054,-0.12083470550378213,0.46846969442783754,30.875
6.480,4.290858397435898,1.9011609935897436,8.912197307692306,0.2841592883114547,0.27031085064304267,0.6447512999081836,0.8426407731511562,0.22393292939315787,-0.11900647096513998,0.4750242419340765,30.875
6.500,4.211830448717948,1.5410449999999998,9.03073923076923,0.23062975040086203,0.19041601794066554,0.44661211480628826,0.8402250551443293,0.2239014011326636,-0.11760954975713618,0.4796436313394169,30.875
6.520,3.956785705128205,2.4929725641025637,8.259318685897435,0.15499597544261165,0.06258428561686209,0.17363810307316632,0.8389624834833174,0.22493838227214163,-0.11727479742320364,0.481447086789029,30.875
6.540,4.123822051282051,3.3191738461538463,8.16771810897436,0.06098638896281455,-0.008255799379245638,-0.030360036426903315,0.8389191878352817,0.226101619072359,-0.11680280343055513,0.4810922564804098,30.875
6.561,4.012464487179487,3.0434740705128203,8.345530993589742,0.05219795736555307,0.032490565298966705,-0.033555829734998405,0.838986150237668,0.2269652149928168,-0.11591462968187634,0.4807835578702285,30.875
6.581,3.9469072115384614,2.9213399679487178,8.600575737179486,0.10626012749416161,0.14780544049939773,0.10652644360316953,0.8384716987330451,0.2273619116995026,-0.11386574730719398,0.48198170413641594,30.875
6.601,3.674799615384615,2.6070242628205125,8.576328525641026,0.12490225512471627,0.23222764705490956,0.22264026713062432,0.8375259255539597,0.226680587867656,-0.111357653451162,0.48452627186439345,30.875
6.621,3.872369487179487,2.361858012820513,8.499096666666667,0.11371697854638348,0.23622238869002843,0.2572613613016544,0.8363226345453422,0.2256260454393599,-0.10959035577530983,0.48749081272119904,30.875
6.641,4.112147467948718,2.2675633012820513,8.281769807692307,0.09267800593475749,0.20453077171808548,0.2367550209080443,0.8350740006940697,0.22496268894707233,-0.10857253313077261,0.49015834889969084,30.875
6.661,4.166928205128205,2.3349166666666665,8.39851564102564,0.11877698461753403,0.2002697139739587,0.18695390852356253,0.8339874573158395,0.22465473048387907,-0.10736188418477517,0.4924110061070641,30.875
6.682,3.848122275641025,2.703115064102564,8.520649743589743,0.2010686623009825,0.2514024069034801,0.18482337965149914,0.8329585978900143,0.22522151047910388,-0.10414175722611611,0.49458036740298245,30.875
6.702,3.452084487179487,3.056944743589743,8.621230769230769,0.2918824554726845,0.33076460738784136,0.2660497928989159,0.8314297804711884,0.22586507138905992,-0.09991823850825339,0.49772063980254433,30.875
6.722,3.4790258333333335,3.046168205128205,8.422762852564102,0.3403519873121266,0.3877562547155371,0.3765709781372043,0.829237574435904,0.22665003254547597,-0.0952673341917995,0.501915274649797,30.875
6.742,3.6236110576923077,2.8450061538461537,8.451500288461538,0.3310309234968493,0.41225733674426607,0.44874264367835165,0.8266745151868318,0.22720416912790659,-0.09064444220429094,0.506725859384527,30.875
6.762,3.8651851282051277,2.739934903846154,8.54399891025641,0.32463933688065916,0.42530682608565434,0.47111319683501723,0.823767205319436,0.22753933186128217,-0.08711041138045711,0.5119035261897061,30.875
6.783,3.584097083333333,2.9096653846153844,8.592493333333334,0.345944625601293,0.4625910813467637,0.4908205889016036,0.820925352398218,0.22783645171323136,-0.08205395638249954,0.5171453038581757,30.875
6.803,3.2518204807692306,3.038085801282051,8.689482179487179,0.3723099203930775,0.5078648198781107,0.5222458897645386,0.8178929851944896,0.22779003197117165,-0.07651790904969326,0.5227884617116965,30.875
6.823,3.1413609615384614,3.0452701602564103,8.838557628205129,0.3677825465399428,0.5294364247077525,0.5464806556842596,0.8147124490959831,0.22743952942039095,-0.07090862004723268,0.5286651618444831,30.875
6.843,3.267087243589743,2.7354446794871796,9.010982243589742,0.33609092956799985,0.5150553548213247,0.5643238349877906,0.8114225516363442,0.2264993917211727,-0.06601792898688146,0.5347271278869122,30.875
6.863,2.8090843589743586,2.121181987179487,10.820542660256411,0.30866037034018373,0.46125950080172406,0.538491172414022,0.8082313353982415,0.22560188487234853,-0.061740813536681614,0.5404201790886862,30.875
6.883,2.953669583333333,3.276067692307692,8.559265673076922,0.13022857730487475,0.31052458310323916,0.402137324601965,0.806028731468657,0.22490081443591417,-0.05881658973524317,0.5443141707552783,30.875
6.904,3.3775467628205127,2.7911234615384615,8.82418891025641,-0.08309062601047223,0.08655273542757524,0.22556974432971147,0.8050302585152488,0.22317060707011982,-0.0595048219520876,0.546425053579424,30.875
6.924,3.662226987179487,2.335814711538461,8.83316935897436,-0.10333065029507445,-0.005060006071150552,0.1440770149732868,0.8044103484497298,0.22199335415632931,-0.061003074200419956,0.5476509535785591,30.875
6.944,3.4278372756410254,2.5199139102564097,8.786471025641026,-0.04314320965928366,0.026098978682776535,0.10945592080225669,0.8038984085298134,0.22102456713208896,-0.06175004777286322,0.5487097785599917,30.875
6.964,3.1314824679487177,2.7605899358974355,8.843047852564101,-0.004793689962142629,0.04234426133225989,0.058855860090751166,0.8037495596635219,0.22025899302172386,-0.061186844148501486,0.5492984538817655,30.875
6.984,3.3191738461538463,2.8917044871794872,8.737976602564103,0.009321063815277334,0.01384843766841204,0.003994741635118857,0.8037111580397445,0.2207419294282493,-0.060646381217252535,0.549220712901433,30.875
7.004,3.261698974358974,2.779448878205128,8.718219615384614,0.0055926382891664005,-0.005858954398174324,-0.0015978966540475428,0.8038324327306616,0.22029864543185554,-0.06038480195386887,0.5492500365081354,30.875
7.025,3.320071891025641,2.632169519230769,8.742466826923076,-0.00346210941710301,-0.003994741635118857,0.0015978966540475428,0.8037139102442676,0.22029601022713324,-0.06107737346962343,0.5493479524016891,31.0
7.045,3.4134685576923074,2.8773357692307693,8.730792243589743,-0.02876213977285577,0.00692421883420602,0.00346210941710301,0.8038436626425504,0.22021510267051111,-0.06057375542246037,0.5492462969736308,31.0
7.065,3.1961416987179487,2.7435270833333334,8.731690288461538,-0.0636495500528938,0.02290318537468145,-0.0021305288720633907,0.8041167880013067,0.219002711524543,-0.06061932272214509,0.5493262248537456,31.0
7.085,3.158423814102564,2.819860897435897,8.862804839743589,-0.05193164125654515,0.02929477199087162,-0.011984224905356573,0.804447760977913,0.21824956811467566,-0.060044330430360365,0.5492045195175926,31.0
7.106,3.207816282051282,2.858476826923077,8.728098108974358,-0.02663161090079238,0.014114753777419962,-0.0031957933080950856,0.8044846676167318,0.21852618576156096,-0.05985591644641782,0.5490610120673839,31.0
7.126,3.461064935897436,2.996775737179487,8.614944455128205,-0.024501082028728992,0.0021305288720633907,0.01464738599543581,0.804375617498505,0.21890102225827732,-0.05997214737486999,0.549058785529771,31.0
7.146,3.4368177243589737,3.074905641025641,8.672419326923077,-0.07297061386817112,0.03808320358813311,0.04340952576829158,0.8042415057256987,0.21867043669888198,-0.060099744858050266,0.5493331059111387,31.0
7.166,3.206020192307692,2.20649625,9.072049294871794,-0.09693906367888427,0.10492854694912199,0.07510114274023452,0.8041406052612734,0.21671843647783656,-0.059959082601180706,0.5502689475831428,31.0
7.186,3.0919684935897433,2.4354976923076923,8.952609326923076,-0.06098638896281455,0.11638013963646271,0.0513990090385293,0.8042646104055001,0.21532809660056595,-0.05947958143023639,0.5506854153294332,31.0
7.207,3.01024641025641,2.8809279487179484,8.745160961538462,-0.01251685712337242,0.05672533121868777,-0.017843179303530896,0.8045899124793955,0.21524571879729815,-0.058594593835675786,0.550337193772205,31.0
7.227,3.289538365384615,3.1826710256410258,8.600575737179486,-0.0023968449810713144,-0.005858954398174324,-0.03488741028003802,0.8046474791962642,0.2157655568608844,-0.058561971724684934,0.5500528648805744,31.0
7.247,3.417060737179487,2.793817596153846,8.724505929487178,-0.043675841877299504,-0.00692421883420602,0.024767398137736915,0.804298479670497,0.21539991289717095,-0.05939197207297898,0.5506173142727177,31.0
7.267,3.411672467948718,2.2478063141025637,9.077437564102564,-0.12357067457967666,0.062317969507854176,0.11797803629051025,0.8039048326781953,0.21293092762468924,-0.060260788945436745,0.5520562266410965,31.0
7.287,3.0686193269230766,1.7924975641025638,9.005593974358973,-0.20453077171808548,0.1206411973805895,0.14381069886427886,0.8039359974058851,0.20993220285456668,-0.060996053792839386,0.5530776290009705,31.0
7.308,2.9491793589743587,2.3771247756410254,9.169936185897436,-0.2149170999693945,0.07749798772130582,0.014913702104443734,0.8049357146704542,0.207587661960235,-0.06165885321467889,0.5524346510403734,31.0
7.328,3.065925192307692,2.6770717628205123,8.86100875,-0.21997710604054507,-0.07723167161229791,-0.19813918510189532,0.8065534385761212,0.20630575121717376,-0.0624505669371163,0.5504629092182193,31.0
7.348,3.145851185897436,2.5755926923076924,8.943628878205127,-0.2292981698558224,-0.1051948630581299,-0.19654128844784777,0.8080068910386959,0.20469538431387327,-0.06394270731130561,0.5487585934236269,31.0
7.369,3.3524015064102564,2.4013719871794867,8.834965448717949,-0.23116238261887787,-0.11238539800134385,-0.13049489341388268,0.8088640976542321,0.2034895777581936,-0.06638815292032647,0.5476526968998003,31.0
7.389,3.2464322115384614,2.4956666987179483,8.893338365384615,-0.17283915474614256,-0.08815063208162278,-0.10333065029507445,0.8096373476739712,0.20246255734624322,-0.06845631098405398,0.5466351723139764,31.0
7.409,3.2455341666666664,2.6564167307692306,8.781082756410257,-0.15286544657054826,-0.0860201032095594,-0.11691277185447856,0.8105551954249447,0.20244966166653502,-0.06934053509774966,0.545166304766805,31.0
7.430,3.280557916666666,2.5073412820512817,8.831373269230768,-0.12357067457967666,-0.07430219441321075,-0.13768542835709663,0.8114169882072247,0.20254490753380244,-0.07037558755614727,0.5437143628385835,31.0
7.450,3.268883333333333,2.2145786538461536,8.982244807692307,-0.13608753170304907,-0.05273058958356892,-0.10812434025721707,0.8122616687783538,0.20125785979626695,-0.07162076904065284,0.5427676489490283,31.0
7.470,3.3092953525641025,2.142735064102564,8.965181955128203,-0.1510012338074928,-0.040213732460196494,-0.09880327644193974,0.8130692526576183,0.19982035337850765,-0.07294994130063882,0.5419119142653204,31.0
7.490,3.084784134615384,2.282830064102564,8.979550673076922,-0.1541970271155879,-0.05219795736555307,-0.1265001517787638,0.8141354070403101,0.1983964257014121,-0.07371614166498959,0.5407294404138172,31.0
7.511,3.22038891025641,2.2927085576923076,8.879867692307691,-0.15446334322459582,-0.0782969360483296,-0.16138756205880184,0.8153166850220128,0.1970798021596034,-0.07494912797400557,0.5392595691514279,31.0
7.531,3.381138942307692,2.27654375,8.838557628205129,-0.15579492376963544,-0.09001484484467825,-0.16937704532903955,0.8163455054533755,0.19651034623091296,-0.0768153356525043,0.5376458906742176,31.0
7.551,3.382935032051282,2.219068878205128,8.84843612179487,-0.15180018213451657,-0.08069378102940092,-0.16271914260384146,0.817352973698814,0.19573862817404536,-0.07860596391391278,0.5361358113980201,31.0
7.571,3.336236698717949,2.330426442307692,8.93105625,-0.14674017606336603,-0.06444849837991756,-0.15472965933360375,0.8183270244607207,0.19559672558788796,-0.07971233262389874,0.534536010016366,31.0
7.591,3.2266752243589742,2.351979519230769,8.938240608974358,-0.1486043888264215,-0.05805691176372739,-0.15020228548046904,0.8194936261490666,0.19473277654595653,-0.08006025539574795,0.5330100355018882,31.0
7.611,3.29043641025641,2.298096826923077,8.905910993589742,-0.14034858944717585,-0.059654808417774936,-0.14247911831923923,0.8205882018169888,0.1940304654163272,-0.08038146448129034,0.5315317504128304,31.0
7.632,3.214102596153846,2.3645521474358975,8.926566025641025,-0.12277172625265288,-0.05725796343670362,-0.12383699068868458,0.8215372852995635,0.1935281658762978,-0.08062924448481591,0.5302096404338453,31.0
7.652,3.2643931089743585,2.262175032051282,8.860110705128205,-0.10226538585904274,-0.05193164125654515,-0.10679275971217746,0.8223328480322145,0.19244582765758597,-0.08138502932222756,0.5292539725563085,31.0
7.672,3.168302307692308,2.040357948717949,9.022656826923075,-0.09400958647979711,-0.03834951969714103,-0.09773801200590804,0.823073219698063,0.19135150346485594,-0.0820000900696108,0.5284042603596031,31.0
7.692,3.053352564102564,1.800579967948718,8.879867692307691,-0.11265171411035177,-0.037816887479125184,-0.132891738394954,0.8239757958291986,0.1901743252707495,-0.0829312038513097,0.5272760466048372,31.0
7.712,3.3173777564102562,1.8158467307692308,8.979550673076922,-0.11318434632836763,-0.06684534336098888,-0.2149170999693945,0.825254732675536,0.1892761757531898,-0.0840658492580731,0.5254161098380943,31.0
7.732,3.3488093269230768,2.077177788461538,8.86460092948718,-0.06791060779702057,-0.09827064422392388,-0.2567287290836386,0.8265323759628596,0.18996734706739915,-0.08504331734628137,0.5229954805809552,31.0
7.753,3.29043641025641,2.225355192307692,8.878071602564102,-0.013049489341388268,-0.09720537978789219,-0.21811289327748962,0.8276401352980355,0.19100153007948045,-0.08504549076139713,0.5208622528579895,31.0
7.773,3.670309391025641,1.967616314102564,8.660744743589742,0.025566346464760685,-0.07190534943213943,-0.18615496019653874,0.8283777525023885,0.1918174112932219,-0.08577968092823594,0.5192670086031932,31.0
7.793,3.9810329166666665,2.038561858974359,8.408394134615383,0.06737797557900473,-0.033555829734998405,-0.21891184160451338,0.8292231456403071,0.1929939389561174,-0.08584871374136185,0.5174672092118981,31.0
7.813,3.460166891025641,2.1867392628205127,8.50897516025641,0.1275654162147955,0.04447479020432328,-0.29055087492764486,0.8303830625977663,0.1944221245217647,-0.08475451656290452,0.5152481720194512,31.0
7.833,3.1422590064102565,2.149021378205128,8.858314615384614,0.1946770756847923,0.14966965326245318,-0.36298885657780017,0.8320980015707645,0.19500942456625694,-0.08160892348492102,0.5127613711268718,31.0
7.853,3.0838860897435896,2.182249038461538,9.27770157051282,0.26871295398899514,0.2069276166991568,-0.41092575619922644,0.8339439011338035,0.19595435686859347,-0.07750958721379675,0.5100311006947478,31.0
7.874,2.193025576923077,2.2235591025641024,9.490538205128205,0.2713761150790744,0.1464738599543581,-0.42850261939374945,0.8358273694449309,0.19736881595768208,-0.07364210079136692,0.5069664682848994,31.0
7.894,2.9357086858974357,3.5598498717948717,8.350919262820511,-0.017576863194522972,-0.022370553156665602,-0.4769721512331916,0.8382450035887441,0.19819922422882594,-0.07261519494277513,0.502781677208926,31.0
7.914,3.228471314102564,2.2585828525641025,9.019962692307692,-0.2348908081449888,-0.16405072314888108,-0.5680522605139016,0.8414224470759368,0.19699478984171784,-0.07447050312637837,0.4976499397127101,31.0
7.935,3.3021109935897437,2.1957197115384615,8.819698685897436,-0.23435817592697297,-0.13448963504900152,-0.6056028318840188,0.8447195349493672,0.19585693774831764,-0.07615360981742995,0.49222920974130646,31.0
7.955,3.1242981089743584,2.5217099999999997,9.178916634615383,-0.21891184160451338,-0.04846953183944214,-0.5992112452678285,0.8481670343522043,0.19420658647142852,-0.07612273724621793,0.4869310140907493,31.0
7.975,2.6959307051282053,2.6025340384615383,8.95350737179487,-0.18295916688844366,-0.02370213370170522,-0.5946838714146939,0.8515049571662501,0.19306394756810558,-0.07544981005498348,0.48163569867005224,31.0
7.995,3.308397307692308,2.6788678525641023,8.991225256410255,-0.15286544657054826,-0.08894958040864656,-0.5946838714146939,0.8544666557945381,0.19318178661739907,-0.07603893512012282,0.4762201295623758,31.0
8.016,2.9087673397435894,2.5082393269230767,8.784674935897435,-0.13502226726701738,-0.1510012338074928,-0.5869607042534641,0.8575092441715063,0.19306904638204878,-0.07621775918943055,0.47073675517605423,31.0
8.036,3.262597019230769,2.843210064102564,8.85562048076923,-0.11424961076439932,-0.1821602185614199,-0.5573996161535846,0.8601080473914574,0.19396715360846156,-0.07729537686621106,0.465420578454151,31.0
8.056,3.0021640064102564,3.2706794230769227,8.887052051282051,-0.0916127414987258,-0.15233281435253243,-0.5166532514753722,0.8623897442585455,0.1946241796736602,-0.07756225861308863,0.46085730299396543,31.0
8.076,2.814472628205128,3.04706625,8.7559375,-0.111852765783328,-0.1006674892049952,-0.4170510267064087,0.8641939713355329,0.19448449677699503,-0.07760000307394926,0.45751808701257063,31.0
8.096,3.1386668269230764,2.6788678525641023,8.88884814102564,-0.14434333108229472,-0.03701793915210141,-0.27244137951510605,0.8653530294069645,0.19399582377837166,-0.07811251803166626,0.4554428497402205,31.0
8.117,3.1889573397435895,2.2280493269230766,8.952609326923076,-0.14327806664626302,0.011185276578332801,-0.18349179910645952,0.8664003325784899,0.19240685508846322,-0.07870431727381519,0.4540216914039589,31.0
8.137,3.1242981089743584,2.439089871794872,8.95350737179487,-0.13928332501114415,0.033289513625990474,-0.18136127023439613,0.8676346213706986,0.1906493404981933,-0.07889645683034859,0.45236969600775145,31.0
8.157,2.9393008653846153,2.5342826282051285,9.201367756410257,-0.1320927900679302,0.030892668644919165,-0.21891184160451338,0.8690251655228254,0.18911498128038143,-0.07837233668829498,0.4504315290755783,31.0
8.177,2.652824551282051,2.527996314102564,9.046005993589743,-0.13715279613908077,0.025832662573768612,-0.1978728689928874,0.8701106799011208,0.18796111653844597,-0.07785335751759093,0.44890631329361813,31.0
8.197,2.8405159294871796,2.568408333333333,8.726302019230769,-0.17417073529118218,0.08815063208162278,-0.049002164057457984,0.870753677727513,0.18647904083814262,-0.07726590162930583,0.44837883591613376,31.0
8.217,2.751609487179487,2.23972391025641,8.93464842948718,-0.1688444131110237,0.1675128325659841,-0.005858954398174324,0.8713139936437587,0.18366416057915252,-0.07646345489934867,0.44858972420706944,31.0
8.238,2.927626282051282,2.116691762820513,8.464072916666666,-0.14247911831923923,0.24074976254316313,-0.09534116702483673,0.8721167313610545,0.18120425841142587,-0.07544086552171576,0.4482031898849114,31.0
8.258,3.308397307692308,2.106813269230769,8.786471025641026,-0.09906959255094766,0.345944625601293,-0.2530003035575276,0.8735882102926994,0.1789649393881072,-0.07305001906919457,0.4466305901093206,31.0
8.278,2.8530885576923075,2.218170833333333,8.940036698717948,-0.008522115488253563,0.4450142181522407,-0.3715109720660537,0.8755501987901336,0.17677385791196706,-0.06904091058225999,0.44429292727146774,31.0
8.298,1.9909654807692307,2.437293782051282,9.31811358974359,0.024501082028728992,0.4828311056313659,-0.38695730638851333,0.8776569804303435,0.1748065892111487,-0.06347222978822505,0.44173765643871393,31.0
8.318,2.457948814102564,2.7560997115384613,9.31811358974359,-0.11371697854638348,0.43223104491986036,-0.3664509659949032,0.8797805971434712,0.17238630823543072,-0.058944504692541484,0.439083826836502,31.0
8.338,2.1894333974358973,2.4534585897435894,9.117849583333333,-0.21651499662344206,0.3547330571985545,-0.39175099635065597,0.8821763603972208,0.16888303849795946,-0.0555276674962998,0.43607346468964364,31.0
8.358,1.9218160256410255,2.65821282051282,9.17083423076923,-0.13608753170304907,0.3701793915210141,-0.37950045533629145,0.8843341224935624,0.16626544225250536,-0.05156829070307326,0.43318549594842526,31.0
8.379,2.0708914743589744,2.73005641025641,9.202265801282051,-0.022636869265673525,0.4681837196359301,-0.2751045406051853,0.8858269395730768,0.16444348460102604,-0.046476144877402356,0.4314034555450427,31.0
8.399,2.0987308653846153,2.4013719871794867,9.427675064102564,0.04793689962142629,0.4865595311574768,-0.17789916081729312,0.8868311030967211,0.16229721495069271,-0.041387652643665646,0.4306707220233909,31.0
8.419,1.8867922756410256,2.219068878205128,9.162751826923076,0.056991647327695696,0.43995421208109015,-0.16431703925788899,0.8877101379306321,0.16037051440721295,-0.0368379762837897,0.42999415417800635,31.0
8.439,1.9074473076923075,2.5091373717948713,9.183406858974358,-0.014114753777419962,0.4157194461613691,-0.23062975040086203,0.8889135610324178,0.1586792292926018,-0.03220194126051124,0.4285050970324936,31.0
8.460,1.7889053846153844,2.5675102884615386,9.250760224358974,-0.09001484484467825,0.4114583884172423,-0.3534014766535149,0.8907288553944477,0.1563892182741893,-0.02773824945383223,0.4258815658050039,31.0
8.480,1.7673523076923077,2.6510284615384614,9.091806282051282,-0.1430117505372551,0.4167847105974008,-0.4506068564414071,0.8929148349158156,0.15404765404041054,-0.023697062319189423,0.422387105756495,31.0
8.500,1.770944487179487,3.0497603846153845,9.072049294871794,-0.171241258092095,0.42184471666855133,-0.4426173731711694,0.8950654569425319,0.1514461923938728,-0.0198122089849371,0.41896223573586194,31.0
8.520,1.3820910576923076,2.6312714743589742,9.008288108974359,-0.14114753777419964,0.4167847105974008,-0.34248251618419,0.8967855734814133,0.14882642221192674,-0.01559344405906234,0.41639305439642843,31.0
8.541,1.7044891666666664,2.4453761858974357,9.227411057692308,-0.06018744063579078,0.44714474702430407,-0.23995081421613937,0.8978569365160243,0.14670241973976678,-0.012076855339328348,0.41495237215573333,31.0
8.561,1.6910184935897434,2.503749102564102,9.116053493589744,0.0021305288720633907,0.5145227226033088,-0.15046860158947695,0.8984415816343466,0.14500511090460633,-0.007726373425143166,0.4143869512371398,31.0
8.581,1.3434751282051283,2.9213399679487178,8.730792243589743,-0.01464738599543581,0.5736448988030679,-0.09241168982574957,0.8988065225440729,0.14311251571339415,-0.0023468326407462175,0.4143188811229471,31.0
8.601,1.3802949679487178,2.4687253525641024,9.665656955128204,0.07190534943213943,0.706270321089014,-0.04767058351241837,0.8988745069776269,0.14070532238348474,0.0037271900118398286,0.4149852298736708,31.0
8.622,0.748969423076923,2.389697403846154,9.474373397435897,0.1206411973805895,0.790426211535518,0.05566006678265608,0.8984874396504033,0.13815377216259977,0.011796684598629028,0.4165269430183212,31.0
8.642,0.01616480769230769,1.9586358653846154,10.411932243589742,0.05486111845563231,0.7275756098096479,0.12996226119586682,0.8978392516420213,0.13515174254658838,0.018815433109531883,0.41864622794719736,31.0
8.662,0.5145797115384615,3.065925192307692,9.247168044871794,-0.08761799986360694,0.601341774139892,0.06578007892495719,0.8975000717289514,0.13236954370722961,0.02413571815674864,0.4199873715414845,31.0
8.682,0.8836761538461538,2.6222910256410255,9.69619048076923,-0.12543488734273212,0.4764395190151757,-0.03728425526110934,0.897683347949466,0.12917741406573469,0.02728410903909801,0.4203966934973088,31.0
8.702,1.0165867948717948,2.3106694551282048,9.866819006410255,-0.040213732460196494,0.4026699568199808,-0.014381069886427886,0.8977418828250143,0.1265577831668431,0.030451410428279885,0.42085074663664457,31.0
8.723,0.10507124999999999,1.8939766346153846,9.203163846153846,-0.06524744670694134,0.33396040069593647,0.11478224298241517,0.8973110225498392,0.12405645850789596,0.033374790653702545,0.4222902405477331,31.0
8.743,0.05298464743589743,2.2424180448717945,9.456412499999999,-0.15632755598765127,0.3475425222553406,0.16245282649483353,0.8967676586097185,0.12072310358118221,0.03602183338109266,0.4241887861002873,31.0
8.763,0.2505545192307692,1.8607489743589742,9.817426538461538,-0.16138756205880184,0.42157840055954343,0.021038972611625982,0.8967852879401489,0.11687574148921052,0.03894338697184714,0.4249701413000829,31.0
8.783,0.17332266025641024,1.9074473076923075,9.751869262820513,-0.07163903332313151,0.4138552333983136,-0.2191781577135213,0.8977028499016285,0.11376522147135411,0.0424724710878186,0.4235364882294824,31.0
8.804,-0.05298464743589743,2.030479455128205,9.302846826923076,-0.002663161090079238,0.31957933080950857,-0.4154531300523612,0.8993925591525651,0.11159599865938562,0.04599747331781828,0.42014710527693816,31.0
8.824,0.3565238141025641,2.6213929807692304,9.654880416666666,0.11371697854638348,0.25007082635844047,-0.4828311056313659,0.9009510665435513,0.11279756439826558,0.04918449007107715,0.41610668234997705,31.0
8.845,-0.01077653846153846,2.3959837179487176,9.20406189102564,0.2857571849655023,0.2079928811351885,-0.4394215798630743,0.9020843128435737,0.11531595662220828,0.05348497043562923,0.41241420999686973,31.0
8.865,0.3538296794871794,2.3349166666666665,9.682719807692308,0.402137324601965,0.21678131273245,-0.38136466809934694,0.9029885753986272,0.11751909454444336,0.057344842056646375,0.4092828657621895,31.0
8.885,0.3789749358974359,2.7605899358974355,9.52286782051282,0.3368898778950236,0.3366235617860157,-0.353135160544507,0.9037359915408169,0.11858629819343572,0.061724055708967204,0.4066800811711222,31.0
8.905,-0.4804540064102564,2.968936346153846,9.054088397435898,0.17843179303530896,0.38509309362545785,-0.28549086885649433,0.9042495692294835,0.11832428907979287,0.06661793179358488,0.40483840026064793,31.0
8.926,-0.6923925961538461,2.851292467948718,8.786471025641026,0.11318434632836763,0.4186489233604562,-0.19441075957578438,0.9043908445515245,0.11763492851589985,0.07221835769441165,0.4037619752977755,31.0
8.946,-0.2909665384615384,2.6088203525641025,9.252556314102563,0.1531317626795562,0.5424859140491408,-0.14221280221023133,0.9042857235580717,0.11684485131501293,0.07794752132695194,0.40316100358195833,31.0
8.966,0.11225560897435896,3.229369358974359,8.825985,0.15046860158947695,0.6500776220883421,-0.16138756205880184,0.9042917907580774,0.11580413360207079,0.08458813754641828,0.40210770546540364,31.0
8.986,-0.1275223717948718,3.0407799358974357,9.028943141025639,0.13555489948503321,0.6807039746242532,-0.2213086865855847,0.9042709959727484,0.1149698028902038,0.09166618301338357,0.4008406430959792,31.0
9.006,-0.5846272115384615,2.8557826923076925,10.114679391025641,0.23409185981796504,0.7382282541699648,-0.17683389638126143,0.903672662828619,0.1142452173331975,0.09914084079403587,0.40061807555248347,31.0
9.026,-2.0358677243589742,2.527098269230769,10.117373525641026,0.27217506340609815,0.7600661751086146,-0.015180018213451657,0.9025488526870595,0.1127044290324289,0.10700956824355318,0.40156223987580725,31.0
9.047,-1.463813141025641,3.7942395833333333,9.13581048076923,0.083889574337496,0.6988134700367921,0.042876893550275734,0.9018915738181305,0.11000574043931723,0.11312000444979245,0.40211216188960563,31.0
9.067,-1.660484967948718,2.9437910897435895,8.92926016025641,-0.14833807271741356,0.590955445888583,-0.09560748313384465,0.9019508650286441,0.10605043089536362,0.11823207506478617,0.40157081518315435,31.0
9.087,-0.9330686217948717,2.4543566346153844,9.256148493589743,-0.13555489948503321,0.5491438167743389,-0.13502226726701738,0.9018797527055449,0.10259475516568858,0.12245631401893799,0.4013622790312673,31.0
9.107,-1.532962596153846,2.2047001602564102,9.245371955128205,-0.06657902725198095,0.5792375370922344,-0.0793622004843613,0.9015498239368819,0.09890824219222734,0.12765195770484758,0.4014100799431186,31.0
9.128,-1.6335436217948716,2.8593748717948717,9.537236538461539,-0.10759170803920122,0.6556702603775084,-0.12330435847066873,0.9013499672737352,0.09456909687414851,0.1335494750163051,0.4009856108826273,31.0
9.148,-1.7736386217948716,2.4013719871794867,9.602793814102563,-0.12570120345174005,0.6527407831784213,-0.20053603008296664,0.901475242556941,0.08992019918231305,0.13901851709861074,0.3999132365146482,31.0
9.168,-1.9361847435897435,2.1580018269230767,9.401631762820513,-0.03728425526110934,0.5632585705517589,-0.19920444953792701,0.9016078569761213,0.08645506272684607,0.14392278014564772,0.39864147767507924,31.0
9.188,-1.645218205128205,2.3250381730769227,9.185202948717949,0.12889699675983513,0.4751079384701361,-0.16538230369392068,0.901557736201779,0.08516805219156383,0.1483318610815188,0.3974137770242892,31.0
9.209,-1.855360705128205,2.5872672756410258,9.335176442307692,0.2615224190457812,0.4572647591666052,-0.16618125202094447,0.9012310597336368,0.08549746553472176,0.15425270566259383,0.3958268095446469,31.0
9.229,-2.2720535256410255,2.8890103525641027,9.041515769230768,0.22264026713062432,0.47031424850799347,-0.21305288720633905,0.9010431773383637,0.08558152028690393,0.1601023763067496,0.3939089045176567,31.0
9.249,-2.336712756410256,3.2365537179487176,9.097194551282051,0.09960222476896351,0.4751079384701361,-0.22770027320177486,0.900971968190624,0.0848385724756268,0.1651644326387476,0.3921385461111056,31.0
9.270,-2.1517155128205125,2.7884293269230764,9.192387307692307,0.038615835806148954,0.45460159807652595,-0.1587244009687226,0.9009169983092432,0.08263502675731389,0.16919107922031557,0.39101712650796516,31.0
9.290,-2.30797532051282,2.5468552564102565,9.390855224358974,0.03808320358813311,0.38882151915156876,-0.10040117309598728,0.9007285853710398,0.08072937964014491,0.17264947191557287,0.3903369603377018,31.0
9.310,-2.549549391025641,2.7471192628205126,8.580818749999999,0.02210423704765768,0.3020024676149856,-0.12676646788777174,0.9005894267769832,0.07959959610738533,0.17616314976387407,0.38931880681816167,31.0
9.330,-2.430109423076923,2.9949796474358976,9.198673621794871,-0.011185276578332801,0.3131877441933184,-0.1632517748218573,0.9005928654826342,0.07863136889400776,0.17900472731413558,0.38820987373690613,31.0
9.351,-2.811778493589743,2.7830410576923073,8.751447275641025,-0.05406217012860853,0.3800330875543073,-0.13502226726701738,0.9003942134389508,0.07637485741304964,0.18293223572106934,0.3872892184077433,31.0
9.371,-2.897990801282051,3.0174307692307694,8.598779647435897,-0.12383699068868458,0.41278996896228193,-0.09454221869781296,0.8999763822486567,0.07373794899308811,0.18678783544054386,0.38693091218504205,31.0
9.391,-2.721974006410256,2.7812449679487177,9.142096794871794,-0.12916331286884306,0.4740426740341044,-0.02929477199087162,0.899282712873811,0.07116832952193995,0.1901526724641178,0.3873856377747237,31.0
9.412,-2.8459041987179488,2.0179068269230767,9.415102435897436,-0.07483482663122659,0.4735100418160886,0.014913702104443734,0.8984888501924152,0.06814030031908644,0.19382039017240338,0.3879540461262827,31.0
9.432,-3.135972692307692,2.4696233974358974,8.728996153846152,-0.06950850445106811,0.35286884443549904,-0.07909588437535338,0.8981515683895066,0.06552182572990246,0.1972032495184459,0.38748100460778134,31.0
9.452,-2.505545192307692,2.218170833333333,9.35852560897436,-0.09081379317170202,0.28016454667633583,-0.19973708175594287,0.8985448393897258,0.06302865744215407,0.19893389855370294,0.38609566684094826,31.0
9.473,-3.1952436538461537,2.4821960256410254,9.168140096153845,-0.04793689962142629,0.23782028534407598,-0.22956448596483034,0.8990651557741902,0.060581340005424526,0.2010667467209906,0.3841665137397001,31.0
9.493,-3.247330256410256,2.5935535897435895,8.95350737179487,0.00905474770626941,0.16351809093086522,-0.223705531566656,0.8995254343230706,0.059342616095138814,0.20327166179417616,0.3821165770184674,31.0
9.513,-2.974324615384615,2.726464230769231,9.13401439102564,0.07510114274023452,0.13342437061296983,-0.2077265650261806,0.900009807905782,0.05955077420145683,0.2044503964601775,0.3803105130714647,31.0
9.533,-3.2563107051282048,2.490278429487179,8.665234967948717,0.16591493591193654,0.09534116702483673,-0.1464738599543581,0.9002210416795966,0.06007386292573359,0.20656331970193545,0.3785826225068952,31.0
9.553,-3.1314824679487177,2.7417309935897434,8.924769935897436,0.21598236440542623,0.06631271114297303,-0.10865697247523291,0.9002879880214195,0.06218012157663602,0.20795834654130682,0.3773175018586666,31.0
9.573,-3.079395865384615,2.7067072435897437,8.852926346153845,0.20160129451899833,0.07989483270237714,-0.12144014570761326,0.9004355844486204,0.06397856194367478,0.2091662938486593,0.37599463212645373,31.125
9.594,-3.154831634615385,2.7201779166666666,9.02175878205128,0.17044230976507124,0.0849548387735277,-0.11877698461753403,0.9006499294837401,0.0652174033312144,0.21009635658794876,0.3747478028916745,31.125
9.614,-3.289538365384615,2.7237700961538462,8.836761538461538,0.13768542835709663,0.08122641324741676,-0.09480853480682087,0.9006342264771876,0.06599034841180607,0.2119978147985016,0.37357755625169264,31.125
9.634,-3.1117254807692305,2.703115064102564,8.840353717948718,0.11638013963646271,0.06551376281594926,-0.07456851052221868,0.9007676653957826,0.06683562885945171,0.21249794827136004,0.3728206454487941,31.125
9.654,-3.1907534294871795,2.578286826923077,8.764019903846155,0.11611382352745478,0.0513990090385293,-0.08042746492039299,0.9010160011480994,0.06705499105668287,0.21306061274351346,0.3718588027018252,31.125
9.674,-3.1961416987179487,2.90697125,8.845741987179487,0.11398329465539139,0.05566006678265608,-0.10679275971217746,0.9011361833976403,0.06828413243649194,0.21398177896538104,0.37081350366422855,31.125
9.694,-3.2940285897435895,2.9015829807692306,8.944526923076923,0.10945592080225669,0.05672533121868777,-0.09853696033293181,0.9012110114506009,0.06948707367274376,0.21495584870525627,0.3698435379183832,31.125
9.714,-3.25361657051282,2.9105634294871794,8.741568782051282,0.10199906975003482,0.029028455881863695,-0.06870955612404435,0.9012874149261452,0.07074130787826012,0.21538840705792892,0.36916730239888235,31.125
9.734,-3.2311654487179484,2.7884293269230764,8.85382439102564,0.058855860090751166,0.015446334322459582,-0.04261057744126781,0.9014759511638549,0.0711138852667941,0.2151827967440312,0.36875505254965835,31.125
9.755,-3.2877422756410253,2.797409775641025,8.48113576923077,-0.0021305288720633907,0.021038972611625982,-0.02077265650261806,0.9013825157463392,0.07114956317795003,0.2159401814175352,0.3685337678093414,31.125
9.775,-3.5517674679487174,2.671683493589743,7.90997923076923,-0.057790595654719466,0.07536745884924244,-0.01944107595757844,0.9012732636277864,0.07004500405475507,0.21697319198538034,0.3684058029352461,31.125
9.795,-3.8822479807692303,2.4741136217948716,7.831849326923077,-0.1017327536410269,0.23302659538193335,-0.04793689962142629,0.9008372803014869,0.06735497770152782,0.22017421758790381,0.36807446978485425,31.125
9.815,-3.494292596153846,2.471419487179487,9.073845384615385,-0.04926848016646591,0.4258394583036702,-0.09321063815277333,0.9003465909376327,0.06528282865354854,0.22436554405683376,0.3671161547930787,31.125
9.836,-3.1629140384615386,2.394187628205128,9.23908564102564,0.19600865622983193,0.42743735495771773,-0.15366439489757205,0.9002100566619947,0.06656162009234583,0.22822322915525364,0.3648363500108496,31.125
9.856,-3.331746474358974,3.004858141025641,8.588901153846153,0.478836363996247,0.21385183553336282,-0.23515712425399674,0.9004836030380527,0.07111353842960341,0.23133372803157387,0.36132651658388126,31.125
9.876,-3.6110384294871793,3.633489551282051,8.75414141025641,0.5829659626183452,0.06764429168801266,-0.29907299041589847,0.9009192456210935,0.07604577775447784,0.23425065672334375,0.3573348323070655,31.125
9.896,-3.811302435897436,3.214102596153846,8.57902266025641,0.5597964611346559,0.03834951969714103,-0.2932140360177241,0.9012161143188723,0.08029069017970472,0.2371271172505632,0.3537423506266924,31.125
9.916,-3.596669711538461,2.9949796474358976,8.434437435897436,0.4660531907638667,0.03195793308095086,-0.21624868051443413,0.9014130835070591,0.08273265193861562,0.23930088650040934,0.351204850344664,31.125
9.937,-3.5580537820512816,3.2832520512820507,8.53861064102564,0.3097256347762154,0.05219795736555307,-0.11451592687340724,0.9012581401610393,0.08505644684297407,0.24064696717789744,0.3501259813724092,31.125
9.957,-3.6092423397435898,3.3164797115384617,8.471257275641026,0.17523599972721388,0.06764429168801266,-0.06338323394388587,0.9010646400051129,0.0865822987029302,0.24192480898245095,0.3493685831361739,31.125
9.977,-3.74215298076923,2.9482813141025637,8.555673493589744,0.1757686319452297,0.06870955612404435,-0.08335694211948015,0.9011614514562467,0.0871106622743904,0.24313714094763078,0.3481437944574052,31.125
9.997,-3.4637590705128205,3.2087143269230767,8.688584134615384,0.2149170999693945,0.05725796343670362,-0.09241168982574957,0.9012809712104479,0.08914721573839215,0.24387391603477707,0.34680094858276667,31.125
10.017,-3.810404391025641,3.3030090384615387,8.103956923076922,0.2825613916574072,0.0,-0.09933590865995559,0.901228899428764,0.09161343683502488,0.2454871441827569,0.34515143207972954,31.125
10.037,-3.536500705128205,3.488904326923077,8.758631634615385,0.22317289934864015,0.028495823663847848,-0.09001484484467825,0.9012846530392823,0.09371115037130465,0.24612881709647721,0.3439837203802476,31.125
10.058,-3.763706057692308,3.179078846153846,8.807126057692308,0.13768542835709663,0.03542004249805387,-0.07057376888709982,0.9014676464593966,0.0942074386054639,0.24661758256186828,0.3430172136638251,31.125
10.078,-3.849918365384615,2.9662422115384612,8.438029615384615,0.15739282042368297,-0.05832322787273532,-0.025832662573768612,0.9016627504150917,0.09513569721271607,0.24666874777237294,0.342210479825139,31.125
10.098,-3.6721054807692304,3.215000641025641,8.438927660256411,0.248206613595385,-0.14913702104443735,0.010918960469324876,0.9019118900926051,0.09746912698564861,0.24578556813837582,0.34153208676365393,31.125
10.119,-3.5733205448717946,3.3299503846153846,8.242255833333333,0.31451932473835803,-0.17496968361820595,0.0018642127630554668,0.9019666709655922,0.10148776848846065,0.2450172997314142,0.340768073837333,31.125
10.139,-3.416162692307692,3.4790258333333335,8.499096666666667,0.2822950755483993,-0.10439591473110614,-0.02530003035575276,0.9020695432778673,0.10461701683640104,0.24452996777651026,0.3398983873717721,31.125
10.159,-3.70892532051282,3.550869423076923,8.348225128205128,0.18588864408753084,-0.030892668644919165,-0.04048004856920442,0.9019419160546053,0.10650110098578937,0.245453724823369,0.33898490308993995,31.125
10.179,-3.6837800641025638,3.576014679487179,8.450602243589744,0.12170646181662119,-0.013049489341388268,-0.03568635860706179,0.901808271988898,0.1078811455071549,0.2462506050933472,0.3383254919565213,31.125
10.199,-3.746643205128205,3.4556766666666667,8.370676249999999,0.13022857730487475,-0.03009372031789539,-0.00905474770626941,0.9018051501455556,0.10860630505329463,0.24677813907735396,0.3377168810514818,31.125
10.219,-3.4853121474358972,3.4314294551282045,8.327570096153845,0.1810949541253882,-0.04687163518539459,-0.0023968449810713144,0.9018685457830997,0.11024855913069678,0.2464224195574913,0.33727492120837266,31.125
10.239,-3.5293163461538457,3.5670342307692304,8.602371826923076,0.22104237047657677,-0.03275688140797463,-0.039414784133172724,0.9019611569373552,0.11219680514881111,0.24634900427137243,0.336437388506585,31.125
10.259,-3.4709434294871793,3.74215298076923,8.479339679487179,0.20399813950006965,-0.014913702104443734,-0.0737695621951949,0.9020090621252604,0.11436236451834307,0.24655449985503913,0.3354277567925966,31.125
10.280,-3.7529295192307686,3.5616459615384612,8.248542147435897,0.12223909403463704,-0.011451592687340724,-0.0636495500528938,0.9020812027367692,0.11499194539845459,0.24743603071089873,0.3343677120603873,31.125
10.300,-3.674799615384615,3.6451641346153845,8.350021217948717,0.033555829734998405,0.006391586616190171,-0.035153726389045944,0.9022295388026659,0.11458018735095202,0.2478296831281057,0.3338168481954921,31.125
10.320,-3.657736762820513,3.53739875,8.345530993589742,-0.0055926382891664005,0.01331580545039619,-0.00346210941710301,0.902360697116562,0.11426984652617912,0.24741214153692123,0.33387843101091497,31.125
10.340,-3.6119364743589744,3.6218149679487177,8.327570096153845,-0.0015978966540475428,0.0005326322180158477,0.010120012142301104,0.9024826957363076,0.11398013235153527,0.24692209983275065,0.33401046381788535,31.125
10.360,-3.614630608974359,3.5347046153846153,8.35630753205128,0.00346210941710301,-0.00346210941710301,0.004527373853134705,0.9026329196970545,0.11355464996045284,0.24657178793744988,0.334008244127086,31.125
10.380,-3.563442051282051,3.5203358974358974,8.384146923076923,0.004793689962142629,-0.0007989483270237714,0.00026631610900792384,0.9026935962925322,0.11382760924927238,0.24602638865901255,0.3341535016552339,31.125
10.400,-3.5580537820512816,3.628101282051282,8.34104076923077,0.010652644360316953,0.0005326322180158477,-0.0010652644360316954,0.9027015563689734,0.11430827085440755,0.24558631258614275,0.3342916128377287,31.125
10.420,-3.635285641025641,3.6038540705128206,8.343734903846153,0.008522115488253563,0.004527373853134705,0.0037284255261109335,0.9026727648498963,0.11392659314906256,0.24608457009289605,0.33413319998749924,31.125
10.441,-3.648756314102564,3.606548205128205,8.299730705128205,0.0055926382891664005,0.0031957933080950856,0.0018642127630554668,0.9025832455960683,0.1137605333245122,0.24668811277791888,0.3339865279334766,31.125
10.461,-3.661328942307692,3.565238141025641,8.325774006410256,0.004261057744126781,-0.0010652644360316954,-0.0007989483270237714,0.9026403861678424,0.11323251813124717,0.24697762244507063,0.3337975196250045,31.125
10.481,-3.5993638461538455,3.5571557371794866,8.373370384615384,0.0023968449810713144,-0.0018642127630554668,0.00346210941710301,0.9027914007120772,0.11287234522258952,0.24655575858168777,0.33382297463548966,31.125
10.501,-3.5616459615384612,3.5715244551282046,8.387739102564101,0.0031957933080950856,-0.002663161090079238,0.004261057744126781,0.9029143546225477,0.11279967040374185,0.24598465817123888,0.33393629709532063,31.125
10.521,-3.6029560256410256,3.610140384615385,8.376064519230768,0.003994741635118857,0.0,0.004527373853134705,0.9029620318155206,0.11306470905310848,0.24543639091425026,0.33412111379155657,31.125
10.542,-3.5571557371794866,3.6245091025641027,8.312303333333332,0.0055926382891664005,0.0021305288720633907,0.006125270507182248,0.9028291448078946,0.11374299762672327,0.24535398418739796,0.3343104668114704,31.125
10.562,-3.6873722435897434,3.5912814423076918,8.270993269230768,0.01251685712337242,0.001331580545039619,-0.006657902725198095,0.9027622749113903,0.11363596205459807,0.24597663442439496,0.33406981073120773,31.125
10.582,-3.689168333333333,3.5948736217948714,8.353613397435897,0.006391586616190171,0.009853696033293181,-0.008788431597261486,0.9027433764325627,0.1132452281276144,0.24657515586315323,0.33381223333563254,31.125
10.602,-3.5796068589743584,3.583199038461538,8.367084070512819,0.004261057744126781,0.004793689962142629,-0.001331580545039619,0.902872771969815,0.11309001185298967,0.24609783144721997,0.3338671355668435,31.125
10.622,-3.5616459615384612,3.526622211538461,8.385943012820512,0.007190534943213943,-0.0015978966540475428,0.0007989483270237714,0.9030239426368851,0.11281439180896331,0.2456593283497917,0.3338744770419546,31.125
10.643,-3.576912724358974,3.564340096153846,8.352715352564102,0.00692421883420602,0.0005326322180158477,0.0021305288720633907,0.9031625710521959,0.11257531747627285,0.24520935290884072,0.3339109782435001,31.125
10.663,-3.67569766025641,3.5858931730769226,8.330264230769231,0.009321063815277334,0.003994741635118857,-0.002663161090079238,0.903081611851848,0.11243015636276682,0.24583829162329063,0.3337163415942556,31.125
10.683,-3.643368044871795,3.628101282051282,8.309609198717949,0.007723167161229791,0.007723167161229791,-0.0021305288720633907,0.9029107456401547,0.1127192243332407,0.24644109678470907,0.33363655028908623,31.125
10.704,-3.6514504487179487,3.5876892628205126,8.29883266025641,0.009587379924285258,0.005060006071150552,-0.002663161090079238,0.9028159119938906,0.11261637027017754,0.24708884728239125,0.3334487722971388,31.125
10.724,-3.596669711538461,3.606548205128205,8.330264230769231,0.007989483270237714,0.005326322180158476,-0.004793689962142629,0.9028195331132934,0.11307475951176149,0.24670659239587944,0.33356685485651266,31.125
10.744,-3.583199038461538,3.5472772435897433,8.323977916666665,0.01038632825130903,0.011185276578332801,-0.011451592687340724,0.9029788140578093,0.11271129246249569,0.24644174655477186,0.3334544818550494,31.125
10.764,-3.647858269230769,3.610140384615385,8.334754455128204,0.016245282649483352,0.016777914867499202,-0.01597896654047543,0.902854842889696,0.11277775346923118,0.24723770263282804,0.3331783747332607,31.125
10.784,-3.646960224358974,3.5796068589743584,8.371574294871793,0.018908443739562592,0.017576863194522972,-0.015446334322459582,0.9029895165223568,0.11228640374433295,0.24730234291084857,0.3329312958790298,31.125
10.804,-3.6505524038461536,3.5849951282051276,8.306017019230769,0.020506340393610135,0.01464738599543581,-0.015180018213451657,0.9029007274933428,0.11223105581391807,0.24809376726409008,0.332601787499101,31.125
10.824,-3.7071292307692305,3.556257692307692,8.36169580128205,0.019707392066586362,0.015180018213451657,-0.01810949541253882,0.9029675521387815,0.11170803764430613,0.2485438965542848,0.33226020766225983,31.125
10.845,-3.703537051282051,3.5921794871794868,8.29883266025641,0.012250541014364496,0.010652644360316953,-0.011717908796348648,0.9028570591142732,0.11168092447727342,0.24921712911842325,0.33206524128459847,31.125
10.865,-3.628999326923077,3.6316934615384615,8.31948769230769,0.007190534943213943,0.004527373853134705,-0.0021305288720633907,0.9027946545549314,0.1122918277068408,0.24899652794675928,0.3321943500539376,31.125
10.885,-3.5472772435897433,3.5921794871794868,8.276381538461537,0.010918960469324876,0.008522115488253563,-0.009321063815277334,0.9029339471060791,0.11220411177607745,0.2486766681106615,0.33208498791929425,31.125
10.905,-3.733172532051282,3.6272032371794873,8.278177628205128,0.02290318537468145,0.02876213977285577,-0.029827404208887468,0.9028162842026789,0.11220749912195369,0.2497629220366451,0.331588173635583,31.125
10.925,-3.7565216987179486,3.620018878205128,8.268299134615384,0.03382214584400633,0.051665325147537224,-0.04340952576829158,0.9026536324629554,0.11218838171659404,0.2510528331400646,0.33106292722319514,31.125
10.945,-3.754725608974359,3.590383397435897,8.16592201923077,0.029028455881863695,0.07350324608618697,-0.04048004856920442,0.9023668312007149,0.11243685579414156,0.2523294090239449,0.3307898498284596,31.125
10.965,-3.5535635576923075,3.5589518269230767,8.516159519230769,0.017843179303530896,0.11930961683554987,-0.045540054640354974,0.9023259622823057,0.11201659017715607,0.25295596613824234,0.3305653044580793,31.125
10.985,-3.774482596153846,3.499680865384615,8.317691602564102,0.04607268685837082,0.10120012142301105,-0.06950850445106811,0.9023848494926971,0.1113158494349173,0.254019442993299,0.32982493485483966,31.125
11.005,-3.8939225641025637,3.556257692307692,8.290750256410256,0.06072007285380663,0.06631271114297303,-0.08202536157444054,0.9024209708795836,0.110978322808894,0.2553335204840809,0.3288236556278758,31.125
11.026,-3.8741655769230765,3.576014679487179,8.211722307692307,0.022636869265673525,0.08175904546543261,-0.06311691783487794,0.9023330537591197,0.1104884866443235,0.25675296690372984,0.32812386136780913,31.125
11.046,-3.641571955128205,4.037609743589743,8.691278269230768,-0.03488741028003802,0.1185106685085261,-0.03568635860706179,0.9021580790310637,0.1102084152345311,0.25738534571784716,0.32820373163658334,31.125
11.066,-3.7852591346153845,3.702639006410256,8.183882916666667,-0.06737797557900473,0.10972223691126462,-0.016777914867499202,0.9018674579012623,0.10980442286441343,0.258247293498538,0.32846067115989386,31.125
11.086,-3.7726865064102566,3.549073333333333,8.388637147435897,-0.0961401153518605,0.10253170196805067,-0.018908443739562592,0.9019151189378269,0.1083950551561482,0.25834072098765387,0.32872435584945664,31.125
11.106,-3.936130673076923,3.647858269230769,8.376064519230768,-0.11904330072654194,0.14887070493542942,-0.043675841877299504,0.9016404028433784,0.1070230671613055,0.2598088702080557,0.32877043361140385,31.125
11.126,-3.8975147435897433,3.5589518269230767,8.316793557692307,-0.1296959450868589,0.20266655895503002,-0.042077945223251964,0.9015443012558876,0.10483992228753078,0.26074975231312203,0.3289924470811199,31.125
11.146,-4.110351378205128,3.382036987179487,8.401209775641025,-0.132891738394954,0.22210763491260846,-0.014381069886427886,0.9012479890317607,0.10225178128899928,0.26242538310182306,0.32928643123167906,31.125
11.167,-4.02413907051282,3.361381955128205,8.212620352564102,-0.1320927900679302,0.22343921545764808,0.022370553156665602,0.9008166229731098,0.09976266711715678,0.26408238447838284,0.329905010924668,31.125
11.187,-4.231587435897436,3.415264647435897,7.982720865384615,-0.1339570028309857,0.21411815164237075,0.06897587223305227,0.9000590171628405,0.09787457936902083,0.2660579727786949,0.3309493729531605,31.125
11.207,-4.09598266025641,3.2185928205128205,8.145266987179488,-0.11265171411035177,0.21544973218741037,0.10892328858424084,0.8993420814072569,0.09581274934825444,0.26755658608335603,0.33229085289217813,31.125
11.227,-4.043896057692307,3.299416858974359,8.16053375,-0.06657902725198095,0.19627497233883986,0.11664645574547064,0.8986497545543362,0.09434253505175873,0.26873141701926084,0.33363382656178525,31.125
11.247,-4.248650288461539,3.341624967948718,8.367982115384615,-0.04926848016646591,0.1286306806508272,0.14168016999221547,0.8979870164183974,0.093226712330972,0.26962096426720394,0.33501139395484203,31.125
11.267,-4.155253621794872,3.4583708012820513,8.453296378205128,-0.07989483270237714,0.0346210941710301,0.1976065528838795,0.8974420717018556,0.09286718999463052,0.2689240076352222,0.33712503775215735,31.125
11.287,-4.200155865384615,3.53739875,8.31948769230769,-0.1275654162147955,-0.05832322787273532,0.23648870479903636,0.8967509325880821,0.09302132831410369,0.2680904894774151,0.3395766288083511,31.125
11.307,-3.9765426923076923,3.5445831089743587,8.224294935897436,-0.12916331286884306,-0.10599381138515368,0.21704762884145792,0.8963570039934772,0.09339039554221125,0.2662598285077095,0.34194745083909034,31.125
11.327,-4.109453333333334,3.4592688461538463,8.18657705128205,-0.058855860090751166,-0.10945592080225669,0.10998855302027254,0.8961823525325538,0.09364348081858583,0.2655211393758853,0.34290904632851027,31.125
11.348,-3.9855231410256406,3.444002083333333,8.454194423076922,0.016511598758491276,-0.11691277185447856,-0.019707392066586362,0.896673063136473,0.09412120984873484,0.2639852354015857,0.34268120927771156,31.125
11.368,-4.112147467948718,3.6927605128205125,8.571838301282051,0.031158984753927088,-0.20293287506403795,-0.02663161090079238,0.897152028248795,0.095649677790649,0.262286213755356,0.34230880710478073,31.125
11.388,-4.159743846153845,3.597567756410256,8.427253076923076,-0.02290318537468145,-0.3664509659949032,0.10785802414820915,0.8976118842148393,0.09714526683928192,0.2593505300939029,0.3429183649019431,31.125
11.408,-3.6999448717948713,3.5472772435897433,8.107549102564102,-0.10439591473110614,-0.5057342910060474,0.2269013248747511,0.8982059272973686,0.09905186457583844,0.25387661664299316,0.3449079642655861,31.125
11.428,-3.7655021474358974,3.298518814102564,8.552979358974358,-0.15366439489757205,-0.5483448684473151,0.269245586207011,0.8989396307794083,0.10012012265959883,0.24759779231057463,0.34724463206180406,31.125
11.448,-3.233859583333333,3.4242450961538458,8.572736346153846,-0.17843179303530896,-0.5446164429212043,0.2591255740647099,0.8995908719232487,0.10136247630060671,0.24129719163373894,0.34962490880978286,31.125
11.468,-3.346115192307692,3.2230830448717946,8.47215532051282,-0.1845570635424912,-0.5765743760021551,0.1877528568505863,0.900649492120379,0.1017239752374015,0.23489529941676954,0.3511508557829672,31.125
11.489,-3.1108274358974355,3.087478269230769,8.737976602564103,-0.14940333715344525,-0.5842975431633849,0.07430219441321075,0.9020341630170546,0.10238104690165509,0.22849947690058717,0.35162548121773085,31.125
